"Time (s)","Linear Acceleration x (m/s^2)","Linear Acceleration y (m/s^2)","Linear Acceleration z (m/s^2)","Absolute acceleration (m/s^2)"
5.749808345E-2,-1.503125090E-1,1.485812581E-1,-1.324575609E-1,2.494298419E-1
6.743008317E-2,-1.524596066E-1,9.391856253E-2,-2.183975977E-1,2.824219161E-1
7.736308314E-2,-1.228776655E-1,8.183236778E-2,-2.796501052E-1,3.162271944E-1
8.729508333E-2,-8.869270490E-2,5.136720479E-2,-2.379840159E-1,2.591165326E-1
9.722708305E-2,-5.302891038E-2,3.283211589E-3,-1.517849475E-1,1.608151582E-1
1.071590832E-1,-1.411766365E-2,-4.092524707E-2,-3.088382363E-2,5.317889466E-2
1.170910834E-1,5.857064556E-3,-6.044500709E-2,4.490486205E-2,7.552715222E-2
1.270230832E-1,-5.900206044E-5,-4.260866046E-2,1.352285564E-2,4.470312128E-2
1.369565832E-1,-4.846519511E-3,-1.494665265E-2,-2.313333929E-2,2.796502393E-2
1.468885834E-1,-4.338884348E-2,2.107921243E-3,-2.294330478E-2,4.912667610E-2
1.568205832E-1,-6.736975495E-2,1.292527020E-2,-1.529807031E-2,7.028355033E-2
1.667525833E-1,-7.786442896E-2,1.644938707E-2,-1.413330495E-2,8.082822491E-2
1.766845831E-1,-8.198194686E-2,3.136738837E-2,-6.556482911E-3,8.802238427E-2
1.866165833E-1,-7.862319656E-2,1.846433759E-2,-4.840909839E-3,8.090718885E-2
1.965495832E-1,-5.748423290E-2,-1.708264053E-2,2.819995165E-2,6.626832510E-2
2.064815834E-1,-3.951204814E-2,-4.200756669E-2,4.943236113E-2,7.595653977E-2
2.164135831E-1,-5.674218468E-2,-4.876051605E-2,5.744304657E-2,9.432373533E-2
2.263455833E-1,-8.645696718E-2,-3.613930106E-2,3.113583863E-2,9.874359069E-2
2.362775831E-1,-9.831623515E-2,-1.693178236E-2,1.248614430E-2,1.005418875E-1
2.462095832E-1,-8.352111675E-2,-2.460215986E-2,9.498801827E-3,8.758578908E-2
2.561425832E-1,-6.984309062E-2,-1.709959745E-2,4.583515406E-2,8.527200530E-2
2.660745834E-1,-1.011609604E-1,3.862261355E-2,4.578311384E-2,1.175641939E-1
2.760065831E-1,-9.875735275E-2,1.937708795E-2,4.271858811E-2,1.093314412E-1
2.859385833E-1,-9.192307228E-2,-6.200972199E-3,4.298639059E-2,1.016667746E-1
2.958705830E-1,-1.170080660E-1,1.017123163E-2,3.931492388E-2,1.238547726E-1
3.058035830E-1,-7.458152801E-2,1.101323068E-2,5.970416486E-2,9.616799297E-2
3.157355832E-1,-4.830892827E-2,-9.694098830E-3,3.173693240E-2,5.860854017E-2
3.256675834E-1,-3.490667146E-2,-4.578369856E-4,2.471910417E-2,4.277521990E-2
3.355995831E-1,-2.956584295E-2,1.310127139E-2,-2.041847706E-3,3.240295548E-2
3.455315833E-1,-4.789065136E-2,5.404756844E-2,-3.269996881E-2,7.927131954E-2
3.554635830E-1,-7.547251577E-2,6.631561160E-2,-7.226339936E-2,1.237572619E-1
3.653965835E-1,-8.172339030E-2,6.915969729E-2,-7.923211098E-2,1.331897281E-1
3.753285832E-1,-7.107085973E-2,7.364217281E-2,-1.194393200E-1,1.572895034E-1
3.852605834E-1,-6.261850851E-2,7.699555099E-2,-1.064514846E-1,1.455380055E-1
3.951925831E-1,-7.947997810E-2,1.231417769E-1,-1.286545318E-1,1.950203905E-1
4.051245833E-1,-4.691297863E-2,1.284908098E-1,-1.496080291E-1,2.027147704E-1
4.150565830E-1,-7.205701092E-2,1.257186449E-1,-1.864256072E-1,2.361183972E-1
4.249895834E-1,-1.078601154E-1,1.457687473E-1,-1.805351222E-1,2.558813446E-1
4.349215832E-1,-1.356126636E-1,1.273049945E-1,-1.823881048E-1,2.605048501E-1
4.448535834E-1,-1.817619594E-1,8.032086253E-2,-2.026750195E-1,2.838415304E-1
4.547855831E-1,-2.101649556E-1,6.914917231E-2,-1.814437795E-1,2.861341673E-1
4.647175833E-1,-2.550046943E-1,7.555070400E-2,-1.890334654E-1,3.262958075E-1
4.746495835E-1,-2.859019665E-1,9.772626936E-2,-1.469890612E-1,3.360002117E-1
4.845825834E-1,-2.937191639E-1,2.977577627E-2,-8.952321053E-2,3.084995127E-1
4.945145831E-1,-2.481214251E-1,-8.102311313E-2,-9.599958658E-3,2.611917794E-1
5.044465833E-1,-1.882928424E-1,-2.293967950E-1,-1.772817314E-2,2.973068654E-1
5.143785831E-1,-2.001212481E-1,-2.045964146E-1,1.015018165E-2,2.863760342E-1
5.243105832E-1,-2.579617591E-1,-1.326832634E-1,4.721626639E-2,2.939021833E-1
5.342425834E-1,-2.996837807E-1,-7.042912781E-2,1.093429327E-1,3.266902315E-1
5.441755834E-1,-2.969870631E-1,-5.590288997E-2,1.911484033E-1,3.575809850E-1
5.541075831E-1,-2.701507552E-1,-6.142967820E-2,2.060892087E-1,3.452937849E-1
5.640395833E-1,-2.430678776E-1,-8.462324381E-2,2.046262354E-1,3.288084286E-1
5.739715830E-1,-2.197763711E-1,-7.308142483E-2,1.840504682E-1,2.958329306E-1
5.839035832E-1,-2.130112522E-1,-6.325693309E-2,1.543366724E-1,2.705458217E-1
5.938355834E-1,-1.725916431E-1,-7.178977489E-2,1.656656528E-1,2.497734084E-1
6.037685834E-1,-1.432901035E-1,-1.013772708E-1,1.890048140E-1,2.579384123E-1
6.137005831E-1,-1.220404173E-1,-1.015608734E-1,1.477129465E-1,2.168584539E-1
6.236325833E-1,-1.481467368E-1,-4.891312838E-2,1.092458689E-1,1.904589448E-1
6.335645830E-1,-1.726850707E-1,-4.813427925E-3,9.966286719E-2,1.994391883E-1
6.434965832E-1,-1.543777857E-1,-8.437532187E-4,9.129900992E-2,1.793564101E-1
6.534285834E-1,-1.228422716E-1,-3.190825582E-2,6.664305568E-2,1.433515167E-1
6.633615834E-1,-7.941152913E-2,-4.601875663E-2,1.069163382E-2,9.240253219E-2
6.732935831E-1,-6.265409430E-2,-4.367811620E-2,-9.885887504E-3,7.701327248E-2
6.832255833E-1,-8.154377114E-2,-2.548684359E-2,2.227789164E-2,8.829082774E-2
6.931575830E-1,-1.133741676E-1,6.608523130E-3,5.627594233E-2,1.267452411E-1
7.030895832E-1,-1.173004998E-1,9.918047190E-3,5.377684236E-2,1.294207236E-1
7.130215834E-1,-8.456540206E-2,-3.085517228E-2,-6.141915321E-3,9.022788928E-2
7.229545834E-1,-4.490831556E-2,-3.809344053E-2,-5.680453062E-2,8.182066803E-2
7.328865831E-1,-3.810550041E-2,-2.447644472E-3,-5.979655087E-2,7.094820379E-2
7.428185833E-1,-5.770441711E-2,3.072419465E-2,-4.026041865E-2,7.677680119E-2
7.527505835E-1,-5.338204566E-2,5.022231996E-2,-3.683219612E-2,8.202764712E-2
7.626825832E-1,-4.015557077E-2,2.531785905E-2,-3.135452449E-2,5.689086093E-2
7.726145834E-1,8.778982172E-3,-1.215577662E-2,-2.534767985E-3,1.520718521E-2
7.825475833E-1,2.147802908E-2,1.759076357E-2,8.169729710E-3,2.893933620E-2
7.924795831E-1,5.481125135E-4,5.330029428E-2,5.333888590E-2,7.540728444E-2
8.024115833E-1,6.141641233E-3,9.948803544E-2,9.327302992E-2,1.365117104E-1
8.123435834E-1,-1.761869316E-2,1.116993606E-1,9.624516964E-2,1.484934281E-1
8.222755832E-1,-1.560188798E-2,8.171600819E-2,1.553394699E-1,1.762137220E-1
8.322075834E-1,1.420132452E-2,4.627194107E-2,1.833581579E-1,1.896390893E-1
8.421405833E-1,1.803539864E-2,4.660815597E-2,1.142043078E-1,1.246604176E-1
8.520725830E-1,-2.517509563E-3,4.206837773E-2,2.805026293E-2,5.062512726E-2
8.620045832E-1,-3.059636903E-2,8.180839419E-2,1.195346296E-2,8.815688535E-2
8.719365834E-1,-5.141874251E-2,1.262548345E-1,1.093429327E-4,1.363238141E-1
8.818685832E-1,-6.209253319E-2,1.147124308E-1,-6.623258114E-2,1.462914190E-1
8.918005833E-1,-7.606127556E-2,9.405070961E-2,-1.156538326E-1,1.673519125E-1
9.017335833E-1,-7.280614888E-2,1.156982714E-1,-1.282873267E-1,1.874685667E-1
9.116655830E-1,-9.277607141E-2,1.412348163E-1,-1.344076073E-1,2.159168304E-1
9.215975832E-1,-1.246610480E-1,1.680214959E-1,-1.038295931E-1,2.335640905E-1
9.315295834E-1,-1.849684811E-1,2.058138049E-1,-1.006399369E-1,2.944504341E-1
9.414615831E-1,-2.609554422E-1,2.511127692E-1,-7.629037678E-2,3.701021309E-1
9.513945831E-1,-3.093505986E-1,2.936261201E-1,-5.285005867E-2,4.297757787E-1
9.613265833E-1,-3.167234625E-1,2.922578716E-1,-1.149492431E-1,4.460288597E-1
9.712585830E-1,-3.564028506E-1,3.251297486E-1,-1.035974586E-1,4.934215021E-1
9.811905832E-1,-4.318939861E-1,4.051079643E-1,-1.738488311E-1,6.171452779E-1
9.911225834E-1,-5.802458140E-1,4.028000683E-1,-2.930694652E-1,7.647370863E-1
1.001054583E0,-6.063600639E-1,4.639748079E-1,-3.320575297E-1,8.325907472E-1
1.010987583E0,-6.153947429E-1,4.093372554E-1,-4.201224446E-1,8.501591302E-1
1.020919583E0,-6.631468336E-1,2.773615050E-1,-5.140696585E-1,8.837198318E-1
1.030851583E0,-7.789779098E-1,1.868378359E-1,-5.100713325E-1,9.496776954E-1
1.040783583E0,-8.607021041E-1,2.262159097E-1,-6.186301535E-1,1.083828869E0
1.050715583E0,-9.613121472E-1,2.327846718E-1,-7.658338076E-1,1.250924126E0
1.060647583E0,-1.122587199E0,3.117179900E-1,-9.577832794E-1,1.508217138E0
1.070580583E0,-1.220594865E0,3.189305305E-1,-1.094208761E0,1.669988419E0
1.080512583E0,-1.210124110E0,1.971201646E-1,-1.100768752E0,1.647710098E0
1.090444583E0,-1.151340151E0,-2.440744758E-2,-1.034279478E0,1.547873995E0
1.100376583E0,-1.091676697E0,-1.570597208E-1,-9.500860047E-1,1.455709169E0
1.110308583E0,-1.087218341E0,-1.305794352E-1,-8.449372798E-1,1.383117391E0
1.120240583E0,-1.170281767E0,3.320867658E-2,-6.828705883E-1,1.355350313E0
1.130173583E0,-1.341345131E0,1.689044255E-1,-4.599583554E-1,1.428039619E0
1.140105458E0,-1.427609688E0,3.419773310E-1,-2.526207662E-1,1.489575499E0
1.150037458E0,-1.396822782E0,3.913167214E-1,-1.696932149E-1,1.460492536E0
1.159969458E0,-1.298153065E0,3.513276136E-1,-1.032735229E-1,1.348813513E0
1.169901458E0,-1.157537469E0,2.563471967E-1,-6.202024698E-2,1.187204021E0
1.179833458E0,-9.195447548E-1,1.543021739E-1,5.371953964E-2,9.339472715E-1
1.189766458E0,-6.553132457E-1,3.574578345E-2,1.417745143E-1,6.714262609E-1
1.199698458E0,-5.084999298E-1,1.342146492E-1,1.816683125E-1,5.564073386E-1
1.209630458E0,-4.048065038E-1,2.778316212E-1,1.154877716E-1,5.043769826E-1
1.219562458E0,-2.065366669E-1,1.571217012E-1,1.904116541E-1,3.218714368E-1
1.229494458E0,-1.082397458E-1,3.502207357E-1,1.405220407E-1,3.925771901E-1
1.239426458E0,-9.563442796E-2,6.304298347E-1,-7.007829487E-2,6.414816348E-1
1.249359458E0,-1.240523346E-2,6.713767165E-1,-3.134008187E-1,7.410267596E-1
1.259291458E0,2.117348416E-1,3.080786830E-1,-5.297314256E-1,6.483513719E-1
1.269223458E0,3.897006972E-1,2.720142263E-1,-5.579787397E-1,7.329383649E-1
1.279155458E0,5.037799111E-1,3.066127861E-1,-6.774946582E-1,8.982230299E-1
1.289087458E0,5.365849106E-1,3.429684341E-1,-6.766520745E-1,9.291979030E-1
1.299019458E0,5.428678534E-1,1.707983387E-1,-5.175382268E-1,7.692355914E-1
1.308952458E0,5.684016209E-1,1.601464659E-1,-2.413344705E-1,6.379417057E-1
1.318884458E0,5.058653206E-1,3.018812191E-1,-1.507324487E-1,6.080725813E-1
1.328816458E0,5.704873958E-1,1.932335204E-1,3.476695955E-2,6.033272774E-1
1.338748458E0,6.247575970E-1,3.549569803E-1,6.907315850E-2,7.218639859E-1
1.348680458E0,7.104684229E-1,4.299796808E-1,-3.126564682E-2,8.310387756E-1
1.358612458E0,7.774101251E-1,5.176306129E-1,-2.790396559E-1,9.747671946E-1
1.368545458E0,8.509564767E-1,5.682341713E-1,-5.253360736E-1,1.150215192E0
1.378477458E0,9.552547972E-1,5.970901805E-1,-5.273299742E-1,1.243826882E0
1.388409458E0,1.073074438E0,7.409673536E-1,-5.082867622E-1,1.399598800E0
1.398341458E0,1.152675509E0,8.278774434E-1,-5.086931437E-1,1.507584361E0
1.408273458E0,1.192642543E0,8.714889014E-1,-4.920127916E-1,1.556909030E0
1.418206458E0,1.185251517E0,9.713757169E-1,-5.465690678E-1,1.627000211E0
1.428138458E0,1.185698098E0,1.070225236E0,-6.411226380E-1,1.721133427E0
1.438070458E0,1.112138663E0,1.058079985E0,-7.792490745E-1,1.721515257E0
1.448002458E0,9.853603564E-1,7.742865425E-1,-7.696023381E-1,1.470626547E0
1.457934458E0,9.046502155E-1,4.843617100E-1,-7.699648654E-1,1.282904584E0
1.467866458E0,8.616347350E-1,4.153996485E-1,-9.720428842E-1,1.363759016E0
1.477799458E0,9.151804662E-1,3.241947788E-1,-1.175861619E0,1.524896091E0
1.487731458E0,1.027249809E0,2.468811393E-1,-1.356724770E0,1.719562319E0
1.497663458E0,1.140067304E0,4.247932005E-1,-1.274621091E0,1.762061760E0
1.507595458E0,1.153012893E0,4.843231183E-1,-1.235714303E0,1.758123276E0
1.517527458E0,1.099755722E0,4.377284110E-1,-1.046319480E0,1.579826973E0
1.527459458E0,1.084877628E0,1.938275975E-1,-8.345619804E-1,1.382397303E0
1.537392458E0,1.113078164E0,-6.830074131E-2,-4.556682533E-1,1.204674872E0
1.547324458E0,1.070885972E0,-1.660661870E-1,-4.075176018E-1,1.157776031E0
1.557256458E0,9.233633521E-1,-1.096820712E-2,-6.381124914E-1,1.122456116E0
1.567188458E0,8.582138215E-1,1.113929665E-1,-6.820765364E-1,1.101892807E0
1.577120458E0,7.718172634E-1,4.716481090E-2,-7.392541194E-1,1.069777108E0
1.587052458E0,6.606747039E-1,2.446574432E-1,-8.637612212E-1,1.114644237E0
1.596985458E0,6.546585768E-1,6.885154903E-2,-9.183888334E-1,1.129936475E0
1.606917458E0,7.879690272E-1,-1.968897843E-1,-1.054254152E0,1.330831541E0
1.616849458E0,8.465628789E-1,7.198273301E-2,-1.113523284E0,1.400637114E0
1.626781458E0,8.392344904E-1,2.122767323E-1,-1.126204725E0,1.420462257E0
1.636713458E0,7.009387770E-1,9.048332334E-2,-1.034144992E0,1.252580642E0
1.646645458E0,5.449076546E-1,3.489501357E-2,-8.798743933E-1,1.035529315E0
1.656578458E0,4.596735960E-1,5.245899689E-1,-6.855082673E-1,9.779652524E-1
1.666510458E0,1.689294223E-1,1.067674681E0,-5.883380681E-1,1.230694136E0
1.676442458E0,-3.120794211E-1,1.478438657E0,-8.676490349E-1,1.742409044E0
1.686374458E0,-1.000512612E0,1.669459591E0,-9.771246994E-1,2.177818516E0
1.696306458E0,-1.132073064E0,1.957819124E0,-5.069109124E-1,2.317672068E0
1.706239458E0,-9.647257517E-1,1.950351060E0,-2.499193525E-1,2.190211112E0
1.716171458E0,-7.174842046E-1,1.934764722E0,-4.453841704E-1,2.111034148E0
1.726103458E0,-6.417312600E-1,1.931310187E0,-7.552866000E-1,2.170768504E0
1.736035458E0,-6.810151206E-1,1.893914904E0,-7.754653412E-1,2.156859234E0
1.745967458E0,-6.668250977E-1,1.801096203E0,-7.435740423E-1,2.059491587E0
1.755899458E0,-6.328725091E-1,1.776861248E0,-7.364971572E-1,2.024892977E0
1.765832458E0,-6.689251982E-1,1.760176803E0,-7.699683738E-1,2.034338859E0
1.775764458E0,-7.420768628E-1,1.794547906E0,-7.845372963E-1,2.094416154E0
1.785696458E0,-8.181213641E-1,1.911653602E0,-6.656107771E-1,2.183295621E0
1.795628458E0,-8.040113018E-1,1.980387622E0,-5.817289603E-1,2.215124802E0
1.805560458E0,-6.543475780E-1,1.943871760E0,-6.764228636E-1,2.159712033E0
1.815492458E0,-4.958440701E-1,1.853860307E0,-7.754203176E-1,2.069767149E0
1.825425458E0,-3.972582965E-1,1.809835451E0,-7.733521575E-1,2.007832681E0
1.835357458E0,-3.171264087E-1,1.806361620E0,-7.704829288E-1,1.989260015E0
1.845289458E0,-2.572827512E-1,1.844909390E0,-6.525592071E-1,1.973757480E0
1.855221458E0,-9.068296921E-2,1.858488963E0,-4.585971236E-1,1.916380951E0
1.865153458E0,9.527869798E-2,1.827649578E0,-4.713136482E-1,1.889845911E0
1.875086458E0,2.737241166E-1,1.773292692E0,-5.275217628E-1,1.870232893E0
1.885018458E0,3.994367498E-1,1.703361163E0,-4.583626503E-1,1.808614189E0
1.894950458E0,4.137323150E-1,1.663698329E0,-1.287428248E-1,1.719197858E0
1.904882458E0,3.992072831E-1,1.650818667E0,3.389490581E-1,1.731893528E0
1.914814458E0,3.285262134E-1,1.565424176E0,6.981084323E-1,1.745232852E0
1.924746458E0,2.375067004E-1,1.394742782E0,1.113275946E0,1.800305583E0
1.934679458E0,6.138882078E-3,1.199472091E0,1.304664086E0,1.772263908E0
1.944611458E0,-1.465210099E-1,9.126702565E-1,1.369547129E0,1.652299834E0
1.954543458E0,-2.033573348E-1,6.500887585E-1,1.413265007E0,1.568849125E0
1.964475458E0,-2.009123581E-1,4.351129514E-1,1.367730984E0,1.449267781E0
1.974407458E0,-2.119447201E-1,3.358874559E-1,1.413211212E0,1.467960108E0
1.984339458E0,-2.719360746E-1,3.085195631E-1,1.497037480E0,1.552499523E0
1.994272458E0,-3.329795625E-1,3.026396030E-1,1.392947102E0,1.463819574E0
2.004204458E0,-4.362754510E-1,1.349730331E-1,1.359424430E0,1.434081158E0
2.014136458E0,-5.194883829E-1,-7.562145531E-2,1.395264353E0,1.490754641E0
2.024068458E0,-4.834315276E-1,-1.991275138E-1,1.465975901E0,1.556419979E0
2.034000458E0,-4.891973573E-1,-2.611851829E-1,1.480220304E0,1.580690957E0
2.043933458E0,-5.970914230E-1,-2.415829772E-1,1.449700177E0,1.586351507E0
2.053865458E0,-6.366590197E-1,-3.298572224E-1,1.349479485E0,1.528147694E0
2.063797458E0,-6.912172694E-1,-3.315733802E-1,1.084107696E0,1.327784514E0
2.073729458E0,-7.488825101E-1,-2.335874945E-1,8.020596474E-1,1.121912568E0
2.083661458E0,-7.508592345E-1,-2.404211354E-1,4.991674447E-1,9.331452460E-1
2.093593458E0,-7.428173395E-1,-2.555847198E-1,3.149374670E-1,8.463372596E-1
2.103526458E0,-7.494341218E-1,-2.832379568E-1,2.174614584E-1,8.301594600E-1
2.113458458E0,-7.405423341E-1,-3.203905803E-1,1.824436533E-1,8.272477012E-1
2.123390458E0,-7.501235086E-1,-3.155321288E-1,1.744119179E-1,8.322651738E-1
2.133322458E0,-7.729734041E-1,-2.685842496E-1,6.900006831E-2,8.212103214E-1
2.143254208E0,-8.086313331E-1,-1.947543812E-1,-1.159970641E-2,8.318343916E-1
2.153186208E0,-7.727220469E-1,-1.106240577E-1,-6.606593549E-2,7.833911869E-1
2.163119208E0,-6.273275945E-1,-9.747659326E-2,-6.907783628E-2,6.386026499E-1
2.173051208E0,-4.195024205E-1,-1.194562769E-1,-1.760362744E-2,4.365340429E-1
2.182983208E0,-2.259260157E-1,-1.628274143E-1,-4.754604936E-2,2.825171822E-1
2.192915208E0,-1.503698482E-1,-3.015327251E-1,-2.552572757E-1,4.227166336E-1
2.202847208E0,-1.684302346E-1,-3.847976607E-1,-3.829440933E-1,5.684049281E-1
2.212780208E0,-2.317259420E-1,-4.230361122E-1,-4.887710953E-1,6.866976394E-1
2.222712208E0,-2.436971294E-1,-5.309926701E-1,-6.323149770E-1,8.609086692E-1
2.232644208E0,-2.002869984E-1,-5.602170539E-1,-7.669272369E-1,9.706366034E-1
2.242576208E0,-2.397636526E-1,-4.623258930E-1,-8.263700312E-1,9.767902892E-1
2.252508208E0,-2.375901146E-1,-5.426958722E-1,-1.042018853E0,1.198653896E0
2.262440208E0,-2.123440849E-1,-5.536839598E-1,-1.315062774E0,1.442583113E0
2.272373208E0,-2.386086082E-1,-3.778768963E-1,-1.344868956E0,1.417179426E0
2.282305208E0,-2.545406629E-1,-2.147401643E-1,-1.369255353E0,1.409171569E0
2.292237208E0,-2.666949777E-1,-2.001402515E-1,-1.490572799E0,1.527412714E0
2.302169208E0,-3.207415594E-1,-2.584948790E-1,-1.477673256E0,1.534018580E0
2.312101208E0,-3.599243362E-1,-2.373759055E-1,-1.526663568E0,1.586377792E0
2.322034208E0,-3.757388253E-1,-1.424662399E-1,-1.572785820E0,1.623308822E0
2.331966208E0,-3.766058943E-1,-5.896449208E-2,-1.621021256E0,1.665238339E0
2.341898208E0,-3.537187959E-1,-2.719715416E-2,-1.658656275E0,1.696171368E0
2.351830208E0,-3.229151887E-1,-1.629326642E-2,-1.609682336E0,1.641833400E0
2.361762208E0,-2.836097300E-1,2.501672745E-2,-1.601433669E0,1.626545453E0
2.371695208E0,-2.662730097E-1,5.040884614E-2,-1.622327524E0,1.644806665E0
2.381627208E0,-2.559139728E-1,1.472475082E-1,-1.620430688E0,1.647109409E0
2.391559208E0,-2.380871462E-1,2.295973545E-1,-1.613495890E0,1.647048700E0
2.401491208E0,-2.111471782E-1,3.139381778E-1,-1.547987779E0,1.593551528E0
2.411423208E0,-2.163515656E-1,4.093571359E-1,-1.441742701E0,1.514266582E0
2.421355208E0,-1.769785532E-1,5.078137225E-1,-1.315251639E0,1.420944425E0
2.431288208E0,-1.725087406E-1,5.648416167E-1,-1.190812950E0,1.329225639E0
2.441220208E0,-1.635992833E-1,6.279459375E-1,-1.052748494E0,1.236673044E0
2.451152208E0,-9.097829014E-2,7.127562922E-1,-8.943678868E-1,1.147254330E0
2.461084208E0,-3.817213583E-2,7.151676840E-1,-7.672073185E-1,1.049537516E0
2.471016208E0,1.356528450E-2,7.550579739E-1,-6.226501143E-1,9.787694957E-1
2.480949208E0,9.047957746E-2,8.428012919E-1,-3.675343412E-1,9.238950501E-1
2.490881208E0,1.372363623E-1,9.367052364E-1,-7.441283584E-2,9.496250783E-1
2.500813208E0,1.559492980E-1,9.461309481E-1,2.089654541E-1,9.814023209E-1
2.510745208E0,1.670339012E-1,9.172603208E-1,4.185881352E-1,1.021999436E0
2.520677208E0,1.173986234E-1,9.340348130E-1,5.246139425E-1,1.077693490E0
2.530609208E0,6.076537055E-2,9.730164456E-1,6.033256513E-1,1.146496958E0
2.540542208E0,-1.637797795E-2,9.786718726E-1,6.686256015E-1,1.185380558E0
2.550474208E0,-7.010663560E-2,9.974560529E-1,7.933543128E-1,1.276418655E0
2.560406208E0,-4.749150580E-2,1.013045315E0,9.128778327E-1,1.364500711E0
2.570338208E0,-1.797283343E-3,1.013947540E0,9.735315853E-1,1.405651661E0
2.580270208E0,1.045330679E-1,9.532294679E-1,1.065253349E0,1.433296298E0
2.590203208E0,2.307551398E-1,9.371081096E-1,1.083366854E0,1.450897406E0
2.600135208E0,3.061547663E-1,9.850231183E-1,1.000840421E0,1.437248355E0
2.610067208E0,3.845323433E-1,1.062029779E0,9.159897208E-1,1.454238475E0
2.619999208E0,5.118106964E-1,1.151027910E0,8.603277361E-1,1.525443952E0
2.629931208E0,6.200405020E-1,1.134263358E0,8.341357183E-1,1.538436214E0
2.639864208E0,6.916933789E-1,9.210949248E-1,7.916533577E-1,1.397701910E0
2.649796208E0,7.651938298E-1,6.487538391E-1,8.245269889E-1,1.298556081E0
2.659728208E0,7.718477420E-1,4.106253970E-1,9.202874243E-1,1.269366416E0
2.669660208E0,6.703666831E-1,2.237975013E-1,1.212240656E0,1.403212108E0
2.679592208E0,5.864178060E-1,4.616259813E-2,1.444631225E0,1.559800053E0
2.689525208E0,5.376993899E-1,-2.037842363E-1,1.550905539E0,1.654072744E0
2.699457208E0,3.751425190E-1,-4.263520682E-1,1.517979868E0,1.620731586E0
2.709389208E0,1.517489963E-1,-5.617361605E-1,1.308511553E0,1.432053685E0
2.719321208E0,2.992291597E-2,-5.287742364E-1,1.021688084E0,1.150801510E0
2.729253208E0,-2.352711271E-2,-4.679526687E-1,7.569893092E-1,8.902617814E-1
2.739185208E0,1.574318047E-2,-4.783127654E-1,5.516485441E-1,7.303061450E-1
2.749118208E0,1.271511396E-1,-5.139071059E-1,5.864447397E-1,7.900540225E-1
2.759050208E0,2.605989813E-1,-6.009335554E-1,8.082617891E-1,1.040346138E0
2.768982208E0,3.287221682E-1,-6.801387691E-1,9.620289427E-1,1.223170755E0
2.778914208E0,3.348850970E-1,-6.865531647E-1,1.036233618E0,1.287355191E0
2.788846208E0,3.442736057E-1,-6.246919620E-1,1.014955600E0,1.240523774E0
2.798779208E0,4.021404292E-1,-5.777300495E-1,7.765558469E-1,1.048106826E0
2.808711208E0,4.555488970E-1,-6.634835601E-1,4.724187720E-1,9.332281223E-1
2.818643208E0,4.769798195E-1,-7.929906160E-1,8.239486992E-2,9.290493958E-1
2.828575208E0,5.002969075E-1,-8.920097047E-1,-2.517021686E-1,1.053248447E0
2.838507208E0,4.748042167E-1,-9.484961468E-1,-4.998615092E-1,1.172580706E0
2.848440208E0,4.015122556E-1,-9.682135427E-1,-7.617056733E-1,1.295702546E0
2.858372208E0,3.289015681E-1,-9.206014198E-1,-1.050696121E0,1.435146527E0
2.868304208E0,2.604814888E-1,-8.275505841E-1,-1.411362907E0,1.656694248E0
2.878236208E0,2.238974704E-1,-7.284391093E-1,-1.709463902E0,1.871635767E0
2.888168208E0,2.043458979E-1,-6.797645473E-1,-1.897427326E0,2.025849833E0
2.898101208E0,1.923827688E-1,-5.925428009E-1,-1.989628562E0,2.084883669E0
2.908033208E0,1.990009398E-1,-5.138784546E-1,-2.101418554E0,2.172471491E0
2.917965208E0,2.362170605E-1,-4.512828416E-1,-2.285273141E0,2.341351753E0
2.927897208E0,2.754655454E-1,-4.051331073E-1,-2.299200624E0,2.350816371E0
2.937829208E0,3.065726595E-1,-3.513434011E-1,-2.166833110E0,2.216437391E0
2.947762208E0,2.971783584E-1,-3.079102832E-1,-2.109427485E0,2.152395883E0
2.957694208E0,2.574437689E-1,-2.834981579E-1,-2.081252092E0,2.116189682E0
2.967626208E0,2.486045695E-1,-2.317959076E-1,-1.992559771E0,2.021343122E0
2.977558208E0,2.264019608E-1,-1.461868232E-1,-1.829626522E0,1.849367904E0
2.987490208E0,1.848839523E-1,-8.367014766E-2,-1.605362413E0,1.618138204E0
2.997422208E0,1.571180285E-1,2.632065654E-2,-1.389922337E0,1.399022142E0
3.007355208E0,1.861690606E-1,1.453676283E-1,-1.263218436E0,1.285111468E0
3.017287208E0,2.536202015E-1,2.484353292E-1,-1.123510913E0,1.178269956E0
3.027219208E0,3.277691817E-1,3.454991090E-1,-9.165270799E-1,1.032871802E0
3.037151208E0,3.783687933E-1,4.576457816E-1,-7.118131363E-1,9.269738649E-1
3.047083208E0,3.923964098E-1,6.391486180E-1,-4.407087368E-1,8.698908489E-1
3.057016208E0,3.599399775E-1,7.473168451E-1,-1.568562376E-1,8.441819316E-1
3.066948208E0,3.551367457E-1,8.890340567E-1,2.337073624E-2,9.576271996E-1
3.076880208E0,3.919219813E-1,1.060301927E0,3.719413877E-2,1.131028921E0
3.086812208E0,4.524421982E-1,1.093971364E0,1.977996111E-2,1.184005293E0
3.096744208E0,4.674612833E-1,1.089925675E0,1.273406625E-1,1.192758850E0
3.106677208E0,4.147389863E-1,1.124059966E0,3.142936885E-1,1.238668542E0
3.116609208E0,3.244695248E-1,1.165345402E0,5.145345122E-1,1.314555492E0
3.126541208E0,2.271181351E-1,1.143392615E0,7.146724248E-1,1.367364617E0
3.136473000E0,1.706527978E-1,1.091037231E0,8.569404441E-1,1.397795243E0
3.146405000E0,1.599288216E-1,1.042982474E0,9.243588406E-1,1.402793262E0
3.156338000E0,1.331519543E-1,1.037978427E0,9.738455808E-1,1.429511760E0
3.166270000E0,7.054225316E-2,1.037875516E0,8.724501836E-1,1.357693308E0
3.176202000E0,-4.464400314E-2,1.060299003E0,7.525489336E-1,1.300983075E0
3.186134000E0,-1.855996149E-1,1.159273653E0,7.026435328E-1,1.368236293E0
3.196066000E0,-3.474383016E-1,1.262368251E0,6.884365529E-1,1.479267340E0
3.205999000E0,-4.915446855E-1,1.459835740E0,6.949064970E-1,1.689861416E0
3.215931000E0,-6.406112990E-1,1.708076942E0,6.644237924E-1,1.941486197E0
3.225863000E0,-7.729997166E-1,1.789374290E0,5.345746744E-1,2.021177625E0
3.235795000E0,-8.121305262E-1,1.494529610E0,5.708338434E-1,1.794164436E0
3.245727000E0,-6.836076298E-1,9.926706916E-1,9.140636480E-1,1.512688615E0
3.255660000E0,-4.925384198E-1,5.045053679E-1,1.515863176E0,1.671813665E0
3.265592000E0,-3.764553650E-1,9.404486239E-2,2.139182212E0,2.174089146E0
3.275524000E0,-3.122262227E-1,-1.699119008E-1,2.544449805E0,2.569159411E0
3.285456000E0,-4.140965965E-1,-3.696668208E-1,2.443567793E0,2.505823839E0
3.295388000E0,-7.381842251E-1,-4.266947150E-1,2.099912896E0,2.266410930E0
3.305321000E0,-1.126773220E0,-3.723916233E-1,1.684896240E0,2.060866020E0
3.315253000E0,-1.399388394E0,-3.821114498E-1,1.240198533E0,1.908504503E0
3.325185000E0,-1.504576003E0,-4.064943391E-1,9.875432682E-1,1.845055095E0
3.335117000E0,-1.398301982E0,-3.332117701E-1,8.339170325E-1,1.661835170E0
3.345049000E0,-1.201859217E0,-2.126369208E-1,7.191642559E-1,1.416642956E0
3.354982000E0,-1.033189119E0,-1.161783278E-1,6.930003047E-1,1.249490529E0
3.364914000E0,-8.830177103E-1,-1.125156319E-1,7.277438754E-1,1.149778758E0
3.374846000E0,-7.023305605E-1,-1.804766500E-1,8.015562022E-1,1.080894251E0
3.384778000E0,-4.804808764E-1,-1.868805206E-1,7.913206512E-1,9.444440558E-1
3.394710000E0,-2.895570062E-1,-2.080725843E-1,7.091011977E-1,7.937014355E-1
3.404643000E0,-1.932943314E-1,-3.372463489E-1,5.173692423E-1,6.471234282E-1
3.414575000E0,-1.432171321E-1,-5.257488871E-1,2.947610646E-1,6.195216900E-1
3.424507000E0,-1.134992798E-1,-6.493064010E-1,1.465364867E-1,6.752435345E-1
3.434439000E0,-1.075785354E-1,-7.132094514E-1,2.215334594E-2,7.216173734E-1
3.444371000E0,-9.941713795E-2,-7.451557142E-1,-5.000538826E-2,7.534197665E-1
3.454304000E0,-8.948666543E-2,-8.281241959E-1,-1.796118468E-1,8.520903489E-1
3.464236000E0,-1.001794139E-1,-8.991491550E-1,-3.761753565E-1,9.798025397E-1
3.474168000E0,-1.216157815E-1,-9.482195735E-1,-6.436825490E-1,1.152492074E0
3.484100000E0,-1.231276705E-1,-9.779696220E-1,-9.533610302E-1,1.371306770E0
3.494032000E0,-8.409003256E-2,-9.482745373E-1,-1.254322482E0,1.574681117E0
3.503965000E0,-4.879956448E-2,-9.293108475E-1,-1.488414592E0,1.755385441E0
3.513897000E0,-9.766494669E-3,-9.320303875E-1,-1.601596806E0,1.853075378E0
3.523829000E0,7.724171877E-4,-9.300125134E-1,-1.616927036E0,1.865308798E0
3.533761000E0,-1.026853295E-2,-8.662690920E-1,-1.679314488E0,1.889609677E0
3.543693000E0,-3.338198257E-2,-7.963264525E-1,-1.743848453E0,1.917356932E0
3.553626000E0,-4.734273070E-2,-7.196367109E-1,-1.784333405E0,1.924568531E0
3.563558000E0,-2.332690953E-2,-6.013183022E-1,-1.868509337E0,1.963021902E0
3.573490000E0,2.027427010E-2,-5.320697272E-1,-1.962072973E0,2.033037037E0
3.583422000E0,3.944464984E-2,-5.442904079E-1,-1.969138749E0,2.043358838E0
3.593354000E0,7.768290946E-3,-5.595510560E-1,-1.901932021E0,1.982549658E0
3.603287000E0,-5.481893496E-2,-4.712890899E-1,-1.763991526E0,1.826686790E0
3.613219000E0,-1.051238560E-1,-3.335889155E-1,-1.593659796E0,1.631589450E0
3.623151000E0,-1.328803877E-1,-1.940924764E-1,-1.454973196E0,1.473864338E0
3.633083000E0,-1.502435849E-1,-5.342016220E-2,-1.293925674E0,1.303714117E0
3.643015000E0,-1.506985166E-1,4.913298368E-2,-1.128713765E0,1.139788953E0
3.652948000E0,-1.913004674E-1,2.040976471E-1,-9.901359236E-1,1.028893029E0
3.662880000E0,-2.439311276E-1,3.354553467E-1,-8.526503420E-1,9.481799884E-1
3.672812000E0,-2.452967997E-1,3.815267283E-1,-6.089611977E-1,7.593200278E-1
3.682744000E0,-2.323088546E-1,4.203756291E-1,-3.457394296E-1,5.917928917E-1
3.692676000E0,-2.120221409E-1,4.963058174E-1,-5.251618266E-2,5.422460715E-1
3.702609000E0,-2.114874130E-1,6.069468319E-1,1.928236306E-1,6.710382517E-1
3.712541000E0,-2.069443640E-1,6.921442723E-1,3.649323303E-1,8.093610252E-1
3.722473000E0,-2.311672588E-1,7.868294048E-1,4.718375587E-1,9.461339734E-1
3.732405000E0,-2.779151633E-1,7.916837633E-1,5.693118131E-1,1.013960532E0
3.742338000E0,-3.149200350E-1,7.336986798E-1,6.748341751E-1,1.045413576E0
3.752270000E0,-3.700476572E-1,7.332285637E-1,7.783240449E-1,1.131524509E0
3.762202000E0,-4.303530986E-1,8.012755358E-1,9.994657409E-1,1.351361551E0
3.772134000E0,-3.986728842E-1,8.464195490E-1,1.245358701E0,1.557653496E0
3.782066000E0,-2.822287273E-1,8.102475035E-1,1.408307152E0,1.649085537E0
3.791999000E0,-1.170289880E-1,7.010741401E-1,1.598966728E0,1.749827229E0
3.801931000E0,4.541348758E-2,6.706732965E-1,1.750562811E0,1.875189380E0
3.811863000E0,1.932667033E-1,7.733726227E-1,1.785846080E0,1.955684906E0
3.821795000E0,3.788072248E-1,8.349531591E-1,1.727977356E0,1.956156291E0
3.831727000E0,5.475396691E-1,8.323178190E-1,1.577014527E0,1.865349152E0
3.841660000E0,6.178650454E-1,7.019599932E-1,1.400729161E0,1.684205222E0
3.851592000E0,5.882050074E-1,4.517447716E-1,1.306589574E0,1.502409659E0
3.861524000E0,5.269744635E-1,1.495676833E-1,1.437386525E0,1.538230347E0
3.871456000E0,4.792234327E-1,-7.958645225E-2,1.811296086E0,1.875308671E0
3.881388000E0,3.998742677E-1,-2.243249202E-1,2.039044551E0,2.089957842E0
3.891321000E0,4.168870706E-1,-3.991174918E-1,2.012057312E0,2.093194742E0
3.901253000E0,4.909347112E-1,-5.640779704E-1,1.844964353E0,1.990752198E0
3.911185000E0,5.505473672E-1,-6.215040600E-1,1.634171644E0,1.832999363E0
3.921117000E0,6.476089543E-1,-6.480825788E-1,1.282053487E0,1.575775850E0
3.931049000E0,7.026862174E-1,-6.166836154E-1,7.218960750E-1,1.181186075E0
3.940982000E0,6.351132352E-1,-5.281117469E-1,1.551962131E-1,8.404502979E-1
3.950914000E0,5.355653754E-1,-5.553597718E-1,-1.179278147E-1,7.804881274E-1
3.960846000E0,5.210464831E-1,-6.386533588E-1,-5.188468337E-2,8.258689791E-1
3.970778000E0,4.978125717E-1,-6.857901031E-1,4.562231541E-2,8.486499972E-1
3.980711000E0,4.287203002E-1,-6.427604431E-1,7.705460787E-2,7.764531509E-1
3.990643000E0,4.082731717E-1,-5.638996303E-1,9.260352373E-2,7.023141665E-1
4.000575000E0,3.886497333E-1,-5.304985803E-1,6.446496785E-2,6.607821812E-1
4.010507000E0,3.100988960E-1,-5.519730645E-1,-7.824217737E-2,6.379321497E-1
4.020439000E0,2.199588591E-1,-6.752095664E-1,-2.772854912E-1,7.623497241E-1
4.030372000E0,6.528618644E-2,-8.257128042E-1,-4.544450158E-1,9.447667403E-1
4.040304000E0,-1.744242336E-1,-8.149626982E-1,-7.557467759E-1,1.125051644E0
4.050236000E0,-4.189869153E-1,-6.966045284E-1,-1.233766011E0,1.477493308E0
4.060168000E0,-6.304861873E-1,-6.412015754E-1,-1.623358389E0,1.855786828E0
4.070100000E0,-7.457556385E-1,-6.451759279E-1,-1.975980576E0,2.208371048E0
4.080033000E0,-7.761049535E-1,-6.907093656E-1,-2.182383780E0,2.417067912E0
4.089965000E0,-7.610765129E-1,-6.466815859E-1,-2.332778844E0,2.537575943E0
4.099897000E0,-7.294741396E-1,-5.667372841E-1,-2.335210117E0,2.511280541E0
4.109829000E0,-6.946079966E-1,-4.963824159E-1,-2.240220344E0,2.397386694E0
4.119761000E0,-6.606465641E-1,-3.970744747E-1,-2.163239411E0,2.296459617E0
4.129694000E0,-6.355964345E-1,-3.173348254E-1,-2.154651605E0,2.268745856E0
4.139626583E0,-5.458908274E-1,-2.571196139E-1,-2.081082523E0,2.166797581E0
4.149558583E0,-4.631134764E-1,-1.613036299E-1,-2.006558005E0,2.065615642E0
4.159490583E0,-3.847638565E-1,-3.222575963E-2,-1.908873836E0,1.947532040E0
4.169423583E0,-2.657393782E-1,4.381260216E-2,-1.740701482E0,1.761413810E0
4.179355583E0,-1.632180814E-1,8.395198345E-2,-1.624654132E0,1.634989029E0
4.189287583E0,-1.071245539E-1,1.202193385E-1,-1.446009999E0,1.454947860E0
4.199219583E0,-3.215970436E-2,1.601242465E-1,-1.246429911E0,1.257084541E0
4.209151583E0,1.613590322E-2,2.708102846E-1,-1.129238260E0,1.161368859E0
4.219084583E0,1.998382794E-2,4.175677961E-1,-9.920982492E-1,1.076578448E0
4.229016583E0,5.541212585E-2,5.535997599E-1,-7.894553894E-1,9.658069216E-1
4.238948583E0,6.468825839E-2,7.310329342E-1,-5.843759948E-1,9.381306012E-1
4.248880583E0,4.381247425E-2,9.016985410E-1,-3.088873529E-1,9.541442179E-1
4.258812583E0,1.223332532E-2,9.757640523E-1,-1.422744513E-2,9.759444452E-1
4.268745583E0,-3.166532228E-2,1.107367335E0,2.362865692E-1,1.132738474E0
4.278677583E0,-3.171655850E-2,1.190617653E0,4.740162313E-1,1.281900044E0
4.288609583E0,-1.289000418E-3,1.223674302E0,7.175135869E-1,1.418522543E0
4.298541583E0,4.759708459E-2,1.194125982E0,1.026149510E0,1.575177818E0
4.308474583E0,1.366659116E-1,1.093191930E0,1.334648023E0,1.730615934E0
4.318406583E0,1.895332561E-1,1.008276910E0,1.563370049E0,1.869938794E0
4.328338583E0,1.754513519E-1,9.829877025E-1,1.652049506E0,1.930366694E0
4.338270583E0,8.344647339E-2,9.777971292E-1,1.643807856E0,1.914459403E0
4.348202583E0,-7.130560717E-2,9.664634711E-1,1.565428854E0,1.841114778E0
4.358135583E0,-2.722314869E-1,1.007612082E0,1.506346833E0,1.832613672E0
4.368067583E0,-4.786232891E-1,1.087648770E0,1.403431744E0,1.838934680E0
4.377999583E0,-6.928948355E-1,1.259399620E0,1.276312106E0,1.922280741E0
4.387931583E0,-8.440349083E-1,1.409427479E0,1.222857445E0,2.047989521E0
4.397864583E0,-9.694853852E-1,1.574092673E0,1.202567022E0,2.205410869E0
4.407796583E0,-1.024768105E0,1.536484551E0,1.269916422E0,2.241343830E0
4.417728583E0,-1.000353494E0,1.221578075E0,1.432532752E0,2.131926404E0
4.427660583E0,-8.661325595E-1,8.194200307E-1,1.589670240E0,1.987130159E0
4.437592583E0,-7.151517503E-1,4.538825136E-1,1.771525664E0,1.963607532E0
4.447525583E0,-6.169547070E-1,1.759672773E-1,1.886424036E0,1.992534375E0
4.457457583E0,-6.714581390E-1,-1.364740133E-3,1.829182134E0,1.948528977E0
4.467389583E0,-8.319158229E-1,-2.024013698E-1,1.741995471E0,1.941030260E0
4.477321583E0,-9.909650588E-1,-2.846430427E-1,1.592925385E0,1.897483779E0
4.487254583E0,-1.127197070E0,-2.432406628E-1,1.388871008E0,1.805187506E0
4.497186583E0,-1.194049603E0,-2.268386382E-1,1.143941669E0,1.669075422E0
4.507118583E0,-1.184589612E0,-2.294260311E-1,9.027545482E-1,1.506935508E0
4.517050583E0,-1.144987151E0,-1.973803657E-1,7.008227098E-1,1.356874001E0
4.526982583E0,-1.091361313E0,-1.997794783E-1,5.523338377E-1,1.239376466E0
4.536915583E0,-9.547991529E-1,-3.146258104E-1,5.431349981E-1,1.142640122E0
4.546847583E0,-7.384704463E-1,-4.829127699E-1,6.949333942E-1,1.123154382E0
4.556779583E0,-4.978806187E-1,-5.935502762E-1,9.168784976E-1,1.200355456E0
4.566711583E0,-2.816865443E-1,-6.761381042E-1,9.086660832E-1,1.167126427E0
4.576643583E0,-1.371449082E-1,-7.327976239E-1,6.528375345E-1,9.909580869E-1
4.586576583E0,-5.731446264E-2,-8.332849485E-1,2.807862192E-1,8.811865035E-1
4.596508583E0,-5.076667747E-2,-9.336605912E-1,-9.185391068E-2,9.395405771E-1
4.606440583E0,-3.333607279E-2,-1.042030547E0,-3.928878683E-1,1.114136362E0
4.616372583E0,-3.542742083E-2,-1.187357830E0,-6.459764117E-1,1.352168348E0
4.626305583E0,-7.651525704E-2,-1.330573098E0,-7.734924906E-1,1.540963980E0
4.636237583E0,-9.533788277E-2,-1.445031760E0,-8.535753715E-1,1.681010712E0
4.646169583E0,-1.162488598E-1,-1.471332536E0,-1.033508230E0,1.801797017E0
4.656101583E0,-1.157699546E-1,-1.439838263E0,-1.280752482E0,1.930508696E0
4.666034583E0,-9.381471964E-2,-1.416028401E0,-1.524901217E0,2.083089378E0
4.675966583E0,-3.663425873E-2,-1.365754040E0,-1.752424564E0,2.222075161E0
4.685898583E0,1.146350740E-2,-1.327035533E0,-1.808199985E0,2.242931542E0
4.695830583E0,5.326504653E-2,-1.245376242E0,-1.810299720E0,2.197950006E0
4.705762583E0,8.877199863E-2,-1.130549206E0,-1.822769492E0,2.146744185E0
4.715695583E0,1.250864969E-1,-9.801079488E-1,-1.861578047E0,2.107541470E0
4.725627583E0,1.675727221E-1,-8.345654887E-1,-1.824674515E0,2.013459028E0
4.735559583E0,1.806812843E-1,-6.853264189E-1,-1.793443952E0,1.928408472E0
4.745491583E0,1.532152678E-1,-5.986759454E-1,-1.791663474E0,1.895242943E0
4.755424583E0,1.016692205E-1,-5.070980233E-1,-1.716639020E0,1.792856536E0
4.765356583E0,4.399197464E-2,-3.947045982E-1,-1.532153519E0,1.582789126E0
4.775288583E0,-3.161207379E-2,-2.421425557E-1,-1.365198555E0,1.386866769E0
4.785220583E0,-1.011475575E-1,-6.156767249E-2,-1.215391721E0,1.221146363E0
4.795152583E0,-1.054893161E-1,5.670629740E-2,-1.048912720E0,1.055727945E0
4.805085583E0,-7.640852252E-2,1.499144232E-1,-8.517738444E-1,8.682345758E-1
4.815017583E0,-4.584776668E-2,2.531265503E-1,-6.022924483E-1,6.549284399E-1
4.824949583E0,-5.462465208E-2,3.575420344E-1,-2.994663191E-1,4.695745258E-1
4.834881583E0,-7.348319250E-2,4.077772182E-1,4.294136703E-2,4.165645212E-1
4.844814583E0,-8.586151963E-2,4.735350055E-1,3.315277719E-1,5.843956413E-1
4.854746583E0,-1.024497507E-1,5.689954787E-1,5.471263075E-1,7.959893232E-1
4.864678583E0,-9.607124238E-2,6.073578912E-1,6.580649453E-1,9.006457483E-1
4.874610583E0,-7.037193473E-2,6.308993661E-1,6.834605724E-1,9.327939608E-1
4.884542583E0,-8.990533520E-2,6.557745910E-1,6.974319094E-1,9.615271976E-1
4.894475583E0,-1.278452863E-1,6.369500649E-1,8.227956283E-1,1.048352254E0
4.904407583E0,-1.993195034E-1,6.176115686E-1,8.459710675E-1,1.066226693E0
4.914339583E0,-3.200618937E-1,7.364977419E-1,8.576508808E-1,1.174918539E0
4.924271583E0,-3.766410872E-1,8.846796352E-1,9.272771859E-1,1.335799216E0
4.934204583E0,-3.468819024E-1,8.930715591E-1,1.040168794E0,1.414162290E0
4.944136583E0,-2.582353175E-1,8.473703063E-1,1.266048489E0,1.545186296E0
4.954068583E0,-9.305288225E-2,9.046268266E-1,1.453271656E0,1.714353243E0
4.964000583E0,6.997868207E-2,1.018678522E0,1.504638861E0,1.818389686E0
4.973932583E0,2.418869958E-1,1.064623019E0,1.423299998E0,1.793798867E0
4.983865583E0,4.690261809E-1,1.090181199E0,1.260342776E0,1.731168541E0
4.993797583E0,6.734837607E-1,1.180516587E0,1.067305137E0,1.728103019E0
5.003729583E0,7.744919991E-1,1.115605477E0,9.272134513E-1,1.644426411E0
5.013661583E0,7.675545701E-1,8.600774753E-1,9.066546410E-1,1.466593304E0
5.023594583E0,7.024135179E-1,6.016211879E-1,1.036425991E0,1.389068623E0
5.033526583E0,6.453980490E-1,4.443527216E-1,1.238443199E0,1.465513405E0
5.043458583E0,6.578757879E-1,2.636825287E-1,1.384406658E0,1.555284805E0
5.053390583E0,6.147900677E-1,-1.704521835E-2,1.429025592E0,1.555754321E0
5.063323583E0,5.580142616E-1,-2.563325787E-1,1.387982816E0,1.517755778E0
5.073255583E0,5.598736762E-1,-5.344144607E-1,1.351544722E0,1.557475677E0
5.083187583E0,5.988678072E-1,-7.169680417E-1,1.160455960E0,1.489746240E0
5.093119583E0,5.717695440E-1,-7.799951792E-1,7.446943688E-1,1.220607469E0
5.103051583E0,4.832514699E-1,-7.689480346E-1,2.451059246E-1,9.406859079E-1
5.112984583E0,3.809113819E-1,-7.166329962E-1,-9.415362060E-2,8.170197283E-1
5.122916583E0,3.459639627E-1,-7.416666806E-1,-1.819554108E-1,8.383724113E-1
5.132848583E0,3.166674754E-1,-8.180073434E-1,-4.528551579E-2,8.783308498E-1
5.142780375E0,2.388560368E-1,-8.979481369E-1,2.538510203E-2,9.295200193E-1
5.152713375E0,1.259693077E-1,-8.647084701E-1,4.086969852E-2,8.747910248E-1
5.162645375E0,-6.238485742E-3,-8.308712178E-1,-9.454947710E-3,8.309484312E-1
5.172577375E0,-1.338180070E-1,-9.052624190E-1,-1.634296775E-1,9.295787033E-1
5.182509375E0,-2.248607079E-1,-9.884373075E-1,-3.722869581E-1,1.079892693E0
5.192442375E0,-3.281353636E-1,-1.049778693E0,-6.729303217E-1,1.289396502E0
5.202374375E0,-4.224974374E-1,-1.077281656E0,-1.024358507E0,1.545428809E0
5.212306375E0,-4.581726158E-1,-1.058980456E0,-1.230165880E0,1.686614907E0
5.222238375E0,-4.947634315E-1,-1.034211650E0,-1.478244529E0,1.870719509E0
5.232170375E0,-5.322740143E-1,-1.019750901E0,-1.769468029E0,2.110503407E0
5.242103375E0,-5.429964556E-1,-9.563787782E-1,-2.010586152E0,2.291715993E0
5.252035375E0,-5.368933146E-1,-8.635606617E-1,-2.157650058E0,2.385255797E0
5.261967375E0,-5.387203137E-1,-7.847957432E-1,-2.287379892E0,2.477545299E0
5.271899375E0,-5.336189104E-1,-6.912788844E-1,-2.353290292E0,2.510097774E0
5.281832375E0,-5.307973731E-1,-6.072158039E-1,-2.346297022E0,2.481041434E0
5.291764375E0,-4.954559977E-1,-5.119009262E-1,-2.289487229E0,2.397763745E0
5.301696375E0,-4.278000215E-1,-4.278805304E-1,-2.271894711E0,2.351084895E0
5.311628375E0,-3.400451186E-1,-3.491278911E-1,-2.166098115E0,2.220248187E0
5.321561375E0,-2.186129945E-1,-2.012184781E-1,-2.013487540E0,2.035291771E0
5.331493375E0,-8.982453399E-2,-7.971392155E-2,-1.869991606E0,1.873844007E0
5.341425375E0,2.585826512E-2,-1.710427523E-2,-1.618926784E0,1.619223622E0
5.351357375E0,9.778068502E-2,2.348885000E-2,-1.339840350E0,1.343608928E0
5.361290375E0,7.097940562E-2,1.145680046E-1,-1.115317209E0,1.123430630E0
5.371222375E0,8.383294693E-3,2.565220284E-1,-8.775764376E-1,9.143381401E-1
5.381154375E0,-4.317688191E-2,4.213684863E-1,-6.107603860E-1,7.432656951E-1
5.391086375E0,-9.963482796E-2,6.243662721E-1,-3.384760183E-1,7.171655009E-1
5.401018375E0,-1.343863198E-1,8.524614769E-1,-1.532982069E-1,8.764990547E-1
5.410951375E0,-1.212381976E-1,1.026571679E0,-6.458249688E-3,1.033726183E0
5.420883375E0,-6.887465924E-2,1.104289945E0,1.470545501E-1,1.116165330E0
5.430815375E0,-2.828481850E-2,1.124054704E0,3.169986105E-1,1.168241040E0
5.440747375E0,3.621735682E-2,1.148542843E0,5.676237220E-1,1.281662611E0
5.450680375E0,4.935746195E-2,1.193706737E0,7.772949350E-1,1.425327804E0
5.460612375E0,7.645447798E-2,1.210602266E0,9.890395707E-1,1.565120573E0
5.470544375E0,1.183428117E-1,1.149608206E0,1.181233456E0,1.652548494E0
5.480476375E0,1.130718300E-1,1.110335382E0,1.281174066E0,1.699128272E0
5.490409375E0,1.014486160E-1,1.093285486E0,1.288591259E0,1.692936032E0
5.500341375E0,2.287745965E-2,1.159167818E0,1.192381173E0,1.663119440E0
5.510273375E0,-9.682717773E-2,1.249642371E0,1.090686398E0,1.661498834E0
5.520205375E0,-2.117615195E-1,1.312304057E0,1.015764855E0,1.672950424E0
5.530138375E0,-3.375050882E-1,1.429260650E0,1.029301159E0,1.793364593E0
5.540070375E0,-4.728408313E-1,1.511304687E0,1.119945281E0,1.939561223E0
5.550002375E0,-6.273718871E-1,1.644987239E0,1.213219480E0,2.138101964E0
5.559934375E0,-7.566069744E-1,1.725609233E0,1.217877957E0,2.243525809E0
5.569866375E0,-8.353668496E-1,1.633714977E0,1.223729850E0,2.205533302E0
5.579799375E0,-8.451708761E-1,1.447642542E0,1.370275108E0,2.165095058E0
5.589731375E0,-7.603641759E-1,1.107359149E0,1.642488139E0,2.121830637E0
5.599663375E0,-6.312281258E-1,7.234461719E-1,2.012936733E0,2.230187795E0
5.609595375E0,-5.846973358E-1,3.312874514E-1,2.295780002E0,2.392117926E0
5.619528375E0,-6.133034863E-1,5.997489095E-3,2.367270400E0,2.445433762E0
5.629460375E0,-8.080085316E-1,-2.505432504E-1,2.290204098E0,2.441451314E0
5.639392375E0,-1.083787268E0,-4.050717115E-1,2.117947463E0,2.413375104E0
5.649324375E0,-1.301146108E0,-4.292879552E-1,1.957494603E0,2.389362774E0
5.659257375E0,-1.429866275E0,-3.924142438E-1,1.711178305E0,2.264207962E0
5.669189375E0,-1.445709013E0,-3.470807809E-1,1.433748388E0,2.065471873E0
5.679121375E0,-1.394492228E0,-3.032056135E-1,1.182429212E0,1.853289254E0
5.689053375E0,-1.336507583E0,-3.059502965E-1,9.542059529E-1,1.670439195E0
5.698986375E0,-1.279349881E0,-2.974718338E-1,7.576599848E-1,1.516335801E0
5.708918375E0,-1.188053137E0,-2.758131623E-1,5.913107926E-1,1.355430415E0
5.718850375E0,-1.006912682E0,-3.095755702E-1,5.559556031E-1,1.191132577E0
5.728782375E0,-7.373870303E-1,-4.445918727E-1,6.328394723E-1,1.068591299E0
5.738715375E0,-4.688214553E-1,-6.245358413E-1,6.892440534E-1,1.041583381E0
5.748647375E0,-2.894320950E-1,-6.834167182E-1,6.257748663E-1,9.707850080E-1
5.758579375E0,-2.243597477E-1,-7.180076766E-1,3.718922710E-1,8.391520609E-1
5.768511375E0,-2.383905436E-1,-7.591948789E-1,-1.028864372E-1,8.023668328E-1
5.778444375E0,-3.052827638E-1,-8.070426446E-1,-5.990823269E-1,1.050435638E0
5.788376375E0,-3.201440105E-1,-8.992649299E-1,-1.014829885E0,1.393215452E0
5.798308375E0,-2.953912849E-1,-1.007835445E0,-1.345544309E0,1.706891263E0
5.808240375E0,-2.480554795E-1,-1.107118828E0,-1.496500121E0,1.877965983E0
5.818173375E0,-1.603455636E-1,-1.196199405E0,-1.588711882E0,1.995146400E0
5.828105375E0,-1.281366147E-1,-1.246787176E0,-1.697816833E0,2.110326811E0
5.838037375E0,-1.621613250E-1,-1.246505924E0,-1.833485100E0,2.223002682E0
5.847969375E0,-1.911460827E-1,-1.233799340E0,-1.874004550E0,2.251819418E0
5.857902375E0,-1.840452057E-1,-1.278544573E0,-1.828701493E0,2.238905539E0
5.867834375E0,-1.648783252E-1,-1.252766538E0,-1.850026288E0,2.240358482E0
5.877766375E0,-1.535812487E-1,-1.163923944E0,-1.993987076E0,2.313934011E0
5.887698375E0,-1.454881449E-1,-1.074474408E0,-2.125548259E0,2.386130226E0
5.897630375E0,-1.350562371E-1,-9.999516445E-1,-2.188379515E0,2.409802560E0
5.907563375E0,-1.226854383E-1,-9.021329892E-1,-2.247141693E0,2.424570361E0
5.917495375E0,-1.190562725E-1,-7.749396765E-1,-2.234878328E0,2.368414457E0
5.927427375E0,-1.119050181E-1,-6.510693365E-1,-2.100979428E0,2.202391557E0
5.937359375E0,-9.970273789E-2,-5.140141100E-1,-1.929298745E0,1.999085988E0
5.947292375E0,-1.125793300E-1,-3.991660237E-1,-1.657394446E0,1.708497577E0
5.957224375E0,-1.677271069E-1,-2.447697097E-1,-1.359243751E0,1.391254170E0
5.967156375E0,-2.250677541E-1,-4.648361027E-2,-1.031178700E0,1.056477984E0
5.977088375E0,-2.682809984E-1,1.177693552E-1,-7.291144627E-1,7.857812767E-1
5.987021375E0,-2.982342194E-1,2.430886352E-1,-4.658693057E-1,6.042101821E-1
5.996953375E0,-2.562432076E-1,3.466410702E-1,-8.760123074E-2,4.398801981E-1
6.006885375E0,-2.120191077E-1,4.192441928E-1,2.665640366E-1,5.401612545E-1
6.016817375E0,-1.865959439E-1,5.089112449E-1,5.700076318E-1,7.865859150E-1
6.026750375E0,-1.724759596E-1,5.988542855E-1,8.309016234E-1,1.038639456E0
6.036682375E0,-2.358029680E-1,7.337203145E-1,1.028931615E0,1.285553891E0
6.046614375E0,-2.822796895E-1,8.311571467E-1,1.120232379E0,1.423174131E0
6.056546375E0,-3.136168002E-1,8.468803096E-1,1.113947791E0,1.434029790E0
6.066479375E0,-2.772766108E-1,8.095774126E-1,1.149875423E0,1.433356688E0
6.076411375E0,-1.711398526E-1,8.167735809E-1,1.240891428E0,1.495399434E0
6.086343375E0,-9.895816807E-2,9.527844948E-1,1.299840133E0,1.614675008E0
6.096275375E0,-6.465518508E-2,1.054403840E0,1.296020147E0,1.672009561E0
6.106208375E0,4.258479651E-2,1.020312234E0,1.330268458E0,1.677040456E0
6.116140375E0,2.176842008E-1,9.587375450E-1,1.409181896E0,1.718242622E0
6.126072375E0,3.512194766E-1,9.602472961E-1,1.393713672E0,1.728544992E0
6.136004375E0,4.859663321E-1,1.056729863E0,1.258262921E0,1.713495508E0
6.145936583E0,6.466887487E-1,1.162030615E0,1.096344749E0,1.723511908E0
6.155868583E0,8.033381411E-1,1.093119425E0,8.706849092E-1,1.611941208E0
6.165800583E0,8.912638924E-1,9.265170479E-1,6.273372424E-1,1.430502423E0
6.175732583E0,8.888811520E-1,7.347564411E-1,5.508550769E-1,1.278052443E0
6.185665583E0,8.323292942E-1,4.162094879E-1,7.158693498E-1,1.174083182E0
6.195597583E0,7.376687931E-1,1.950192600E-1,1.013326566E0,1.268470925E0
6.205529583E0,5.976854636E-1,5.950126648E-2,1.203492052E0,1.345050718E0
6.215461583E0,5.140290935E-1,-2.488001955E-1,1.206351925E0,1.334695626E0
6.225394583E0,4.813112906E-1,-5.444909674E-1,1.127327975E0,1.341267809E0
6.235326583E0,4.943721066E-1,-7.222890079E-1,8.990854204E-1,1.254774794E0
6.245258583E0,5.092816660E-1,-8.082489252E-1,5.212880462E-1,1.088290112E0
6.255190583E0,4.802920844E-1,-7.897565210E-1,1.361413068E-1,9.343073928E-1
6.265123583E0,3.902812892E-1,-7.471256411E-1,-1.095768213E-2,8.429924549E-1
6.275055583E0,2.444646495E-1,-7.895623934E-1,1.375247580E-1,8.379050048E-1
6.284987583E0,1.988552162E-2,-8.235557663E-1,3.237001044E-1,8.851108924E-1
6.294919583E0,-1.352314983E-1,-6.846399558E-1,3.953460377E-1,8.020710172E-1
6.304852583E0,-1.503026235E-1,-5.356534857E-1,4.309292686E-1,7.037155461E-1
6.314784583E0,-6.882483456E-2,-5.254109180E-1,3.553195077E-1,6.380011310E-1
6.324716583E0,4.463253711E-2,-6.402993500E-1,1.626426423E-1,6.621389205E-1
6.334648583E0,1.002626636E-1,-8.437614048E-1,-1.288492441E-1,8.594114484E-1
6.344581583E0,3.743632313E-2,-9.936711502E-1,-4.834191388E-1,1.105657224E0
6.354513583E0,-7.508627976E-2,-1.032527652E0,-7.899284291E-1,1.302205140E0
6.364445583E0,-2.028243245E-1,-1.068914875E0,-9.026510525E-1,1.413681591E0
6.374377583E0,-3.664498289E-1,-1.059859877E0,-1.008642361E0,1.508293025E0
6.384310583E0,-5.027909642E-1,-9.522249162E-1,-1.109675816E0,1.546257243E0
6.394242583E0,-5.758260864E-1,-7.940185565E-1,-1.290174100E0,1.620675896E0
6.404174583E0,-5.763377909E-1,-7.266136086E-1,-1.568983961E0,1.822592454E0
6.414106583E0,-5.348952114E-1,-6.684256268E-1,-1.876558029E0,2.062613813E0
6.424039583E0,-4.945481809E-1,-5.747830528E-1,-2.098817713E0,2.231588952E0
6.433971583E0,-4.727662428E-1,-4.529656702E-1,-2.290713390E0,2.382446989E0
6.443903583E0,-4.383614451E-1,-3.767571545E-1,-2.345350943E0,2.415528463E0
6.453835583E0,-3.844213558E-1,-3.111344379E-1,-2.329213212E0,2.381138090E0
6.463768583E0,-3.026868376E-1,-2.530172074E-1,-2.276991144E0,2.310914473E0
6.473700583E0,-1.635850490E-1,-1.535642552E-1,-2.169095982E0,2.180669491E0
6.483632583E0,-1.607257971E-3,-8.742289066E-2,-1.983432852E0,1.985359218E0
6.493564583E0,1.431457229E-1,9.880040288E-3,-1.777714942E0,1.783496209E0
6.503497583E0,2.523499304E-1,1.706340319E-1,-1.557283682E0,1.586798326E0
6.513429583E0,3.161250365E-1,2.979916513E-1,-1.315798938E0,1.385662624E0
6.523361583E0,3.125289623E-1,3.921090192E-1,-1.072073541E0,1.183539401E0
6.533293583E0,2.709452822E-1,5.229890013E-1,-7.965977633E-1,9.907052225E-1
6.543226583E0,2.253410566E-1,6.979435408E-1,-5.566958606E-1,9.207681897E-1
6.553158583E0,1.897384569E-1,8.980434465E-1,-3.545523530E-1,9.839665060E-1
6.563090583E0,2.213345445E-1,1.067049614E0,-2.160166115E-1,1.110966712E0
6.573023583E0,2.911318623E-1,1.165821365E0,-6.329143167E-2,1.203288420E0
6.582955583E0,2.951368762E-1,1.217321302E0,5.513339639E-2,1.253800869E0
6.592887583E0,2.917603284E-1,1.338577936E0,2.450351733E-1,1.391746104E0
6.602819583E0,2.955762944E-1,1.383405030E0,5.506972021E-1,1.518038943E0
6.612752583E0,2.879154187E-1,1.421593781E0,8.064924216E-1,1.659594586E0
6.622684583E0,2.812757408E-1,1.458037722E0,1.008849937E0,1.795207018E0
6.632616583E0,2.937363036E-1,1.397544767E0,1.239182872E0,1.890763492E0
6.642548583E0,2.831692520E-1,1.336135554E0,1.457870491E0,1.997706038E0
6.652481583E0,1.905556418E-1,1.359426184E0,1.481965697E0,2.020042903E0
6.662413583E0,3.593727062E-2,1.443640122E0,1.462096274E0,2.055021607E0
6.672345583E0,-1.937071997E-1,1.497141561E0,1.339618156E0,2.018299318E0
6.682277583E0,-4.319404715E-1,1.469616963E0,1.238612768E0,1.969900550E0
6.692210583E0,-6.441895026E-1,1.482159240E0,1.238256673E0,2.035940990E0
6.702142583E0,-8.457288466E-1,1.620789122E0,1.216474625E0,2.195911012E0
6.712074583E0,-9.682929917E-1,1.839263318E0,1.239678131E0,2.420182377E0
6.722006583E0,-1.013034059E0,1.735654165E0,1.462361153E0,2.485404097E0
6.731939583E0,-8.865171227E-1,1.292892471E0,1.774849806E0,2.368031964E0
6.741871583E0,-6.296802217E-1,8.352379185E-1,2.092780463E0,2.339625959E0
6.751803583E0,-3.896196402E-1,4.091711944E-1,2.426043103E0,2.490965610E0
6.761735583E0,-3.239598669E-1,1.252456051E-1,2.595938047E0,2.619070599E0
6.771668583E0,-4.590524025E-1,-9.130895019E-2,2.564433249E0,2.606795796E0
6.781600583E0,-7.110136027E-1,-2.635936511E-1,2.492707794E0,2.605496901E0
6.791532583E0,-9.822092919E-1,-4.014353281E-1,2.368573160E0,2.595385179E0
6.801464583E0,-1.236877899E0,-4.164246655E-1,2.180187566E0,2.540963255E0
6.811397583E0,-1.377122928E0,-2.849307257E-1,1.903209053E0,2.366401863E0
6.821329583E0,-1.429939365E0,-2.487697899E-1,1.575988340E0,2.142510734E0
6.831261583E0,-1.353642703E0,-2.567915851E-1,1.378433728E0,1.948940745E0
6.841193583E0,-1.204776831E0,-2.107336521E-1,1.126366693E0,1.662707976E0
6.851126583E0,-1.006308737E0,-2.202266067E-1,9.837992960E-1,1.424436060E0
6.861058583E0,-7.629188975E-1,-3.255887550E-1,1.006691730E0,1.304408495E0
6.870990583E0,-5.082980181E-1,-4.670188683E-1,1.090897483E0,1.290941833E0
6.880923583E0,-2.592276813E-1,-5.390086180E-1,1.093202455E0,1.246122341E0
6.890855583E0,-4.012671841E-2,-6.113556325E-1,8.565387404E-1,1.053102311E0
6.900787583E0,8.867562007E-2,-7.388816518E-1,4.822643137E-1,8.867853907E-1
6.910719583E0,1.375863547E-1,-8.925768846E-1,6.262835741E-2,9.052876952E-1
6.920652583E0,1.355911934E-1,-1.024656131E0,-4.054172820E-1,1.110255975E0
6.930584583E0,8.242861932E-2,-1.094342077E0,-8.024788928E-1,1.359540891E0
6.940516583E0,1.132726728E-2,-1.121963739E0,-9.938448125E-1,1.498885736E0
6.950448583E0,-4.127634496E-2,-1.187885249E0,-1.164150816E0,1.663737426E0
6.960381583E0,-3.916195067E-2,-1.284396467E0,-1.317384118E0,1.840301295E0
6.970313583E0,-2.074048505E-2,-1.398260466E0,-1.479049691E0,2.035473038E0
6.980245583E0,3.592248356E-3,-1.465634424E0,-1.596392784E0,2.167156453E0
6.990177583E0,-2.345124509E-2,-1.489514453E0,-1.758737218E0,2.304855716E0
7.000110583E0,-3.887545081E-2,-1.441494194E0,-1.876066863E0,2.366229847E0
7.010042583E0,-3.742210709E-2,-1.372103532E0,-1.929452527E0,2.367879973E0
7.019974583E0,-5.775489503E-2,-1.308140255E0,-1.987828204E0,2.380341892E0
7.029906583E0,-6.212852097E-2,-1.241851541E0,-2.096363052E0,2.437374252E0
7.039839583E0,-5.870021164E-2,-1.162841039E0,-2.208142519E0,2.496304946E0
7.049771583E0,-4.943813525E-2,-1.064964496E0,-2.285734486E0,2.522137119E0
7.059703583E0,-7.304340879E-2,-9.499409938E-1,-2.336856692E0,2.523612972E0
7.069636583E0,-8.453887945E-2,-8.592512637E-1,-2.294364976E0,2.451442473E0
7.079568583E0,-1.191953266E-1,-7.016477519E-1,-2.223696113E0,2.334810805E0
7.089500583E0,-1.273558926E-1,-5.175458282E-1,-2.122710021E0,2.188600247E0
7.099432583E0,-1.026776733E-1,-3.275323695E-1,-1.929561285E0,1.959853798E0
7.109365583E0,-6.869563394E-2,-2.048876059E-1,-1.660863599E0,1.674862954E0
7.119297583E0,-4.766930684E-2,-1.105761105E-1,-1.356274534E0,1.361609361E0
7.129229583E0,-6.904419651E-2,5.618004799E-2,-1.094483580E0,1.098097266E0
7.139161583E0,-9.534868184E-2,1.798071438E-1,-7.606175065E-1,7.873760038E-1
7.149099083E0,-8.143565247E-2,2.992324305E-1,-3.293356508E-1,4.523646580E-1
7.159031083E0,-5.560379575E-2,4.017376292E-1,1.066806954E-1,4.193634171E-1
7.168963083E0,-3.812141124E-2,5.300553614E-1,4.593245173E-1,7.024179242E-1
7.178895083E0,-2.165587123E-2,6.066036004E-1,6.588683528E-1,8.958484308E-1
7.188828083E0,-2.071041300E-2,6.061498564E-1,7.964948523E-1,1.001124677E0
7.198760083E0,-2.073486624E-2,6.112392730E-1,8.302356255E-1,1.031181156E0
7.208692083E0,-4.822780729E-2,6.084098053E-1,8.452863586E-1,1.042591694E0
7.218625083E0,-6.256569170E-2,6.317869735E-1,9.603829515E-1,1.151262203E0
7.228557083E0,-5.000916154E-2,7.257119679E-1,1.109600971E0,1.326790523E0
7.238489083E0,-4.893900231E-3,8.215782380E-1,1.320970216E0,1.555627546E0
7.248421083E0,4.044507190E-2,8.462803853E-1,1.546380964E0,1.763269798E0
7.258354083E0,1.169090562E-1,8.641050375E-1,1.694021990E0,1.905270517E0
7.268286083E0,2.253898626E-1,9.204306811E-1,1.751083213E0,1.991051393E0
7.278218083E0,3.724213710E-1,9.569102901E-1,1.726298620E0,2.008601978E0
7.288150083E0,5.444128705E-1,9.932244229E-1,1.543266152E0,1.914301581E0
7.298083083E0,7.106689093E-1,1.008737086E0,1.283781340E0,1.780644640E0
7.308015083E0,8.479257187E-1,8.893638396E-1,1.071416899E0,1.630300658E0
7.317947083E0,8.657334870E-1,7.153226352E-1,9.587469006E-1,1.476609821E0
7.327879083E0,8.234694468E-1,5.853998423E-1,9.626803225E-1,1.395545882E0
7.337812083E0,8.205428423E-1,4.075193560E-1,1.129680895E0,1.454490119E0
7.347744083E0,8.552163926E-1,2.100284779E-1,1.327914369E0,1.593381188E0
7.357676083E0,8.339991859E-1,-5.958488166E-2,1.435882037E0,1.661584251E0
7.367609083E0,8.111807191E-1,-2.945435482E-1,1.401945966E0,1.646275358E0
7.377541083E0,8.348753180E-1,-4.063347101E-1,1.273031234E0,1.575669132E0
7.387473083E0,8.276002123E-1,-4.187103420E-1,1.008928875E0,1.370466321E0
7.397405083E0,7.572887597E-1,-4.758557653E-1,6.617253023E-1,1.112567010E0
7.407338083E0,6.616880994E-1,-5.998869038E-1,4.681000185E-1,1.008371492E0
7.417270083E0,5.505618756E-1,-7.127562922E-1,4.275969404E-1,9.969849820E-1
7.427202083E0,4.738459311E-1,-7.272889620E-1,4.547859085E-1,9.799537863E-1
7.437134083E0,4.625618282E-1,-7.875030041E-1,4.599758971E-1,1.022595840E0
7.447067083E0,4.585987316E-1,-7.939255857E-1,5.085516411E-1,1.048453816E0
7.456999083E0,4.321493632E-1,-8.270336902E-1,4.719083101E-1,1.045674543E0
7.466931083E0,4.073964914E-1,-9.001203775E-1,3.550908816E-1,1.049894342E0
7.476864083E0,3.533715444E-1,-9.650724185E-1,1.418739170E-1,1.037479845E0
7.486796083E0,2.658539288E-1,-1.049508551E0,-8.702995777E-2,1.086149494E0
7.496728083E0,1.159812584E-1,-1.099348463E0,-3.388607651E-1,1.156220271E0
7.506660083E0,-8.931197072E-2,-1.049974574E0,-6.020357555E-1,1.213618674E0
7.516593083E0,-2.809419927E-1,-9.789063460E-1,-8.469422901E-1,1.324574377E0
7.526525083E0,-4.481155145E-1,-8.938679498E-1,-1.118344313E0,1.500167133E0
7.536457083E0,-5.444042093E-1,-8.106790280E-1,-1.500355191E0,1.790151426E0
7.546389083E0,-5.477352585E-1,-7.456743622E-1,-1.884602628E0,2.099469274E0
7.556322083E0,-4.849447870E-1,-7.111021149E-1,-2.128818022E0,2.296236886E0
7.566254083E0,-4.075957718E-1,-6.352841932E-1,-2.253752555E0,2.376787937E0
7.576186083E0,-3.643139507E-1,-5.582553130E-1,-2.312182612E0,2.406358676E0
7.586118083E0,-3.759269229E-1,-4.825537509E-1,-2.381028898E0,2.458348590E0
7.596051083E0,-3.874571937E-1,-4.062698060E-1,-2.411032131E0,2.475531089E0
7.605983083E0,-3.429913844E-1,-3.885398787E-1,-2.400703610E0,2.456009802E0
7.615915083E0,-2.580677764E-1,-3.859138942E-1,-2.377870232E0,2.422766054E0
7.625848083E0,-1.701595852E-1,-3.115951985E-1,-2.273184022E0,2.300741500E0
7.635780083E0,-5.261769581E-2,-1.880903095E-1,-2.157196898E0,2.166020555E0
7.645712083E0,4.583988665E-2,-6.078765392E-2,-1.933692927E0,1.935191146E0
7.655644083E0,9.766560450E-2,5.444985688E-2,-1.698726075E0,1.702402313E0
7.665577083E0,1.003473203E-1,1.692295307E-1,-1.466926659E0,1.480061499E0
7.675509083E0,9.467838993E-2,3.058134717E-1,-1.223072623E0,1.264275491E0
7.685441083E0,1.270789813E-1,4.807832140E-1,-9.320040751E-1,1.056377377E0
7.695373083E0,1.885292892E-1,6.589139611E-1,-6.174870229E-1,9.224972219E-1
7.705306083E0,2.108414236E-1,8.108766639E-1,-3.589985758E-1,9.115125054E-1
7.715238083E0,2.272250295E-1,9.274900246E-1,-7.406551123E-2,9.577863330E-1
7.725170083E0,1.910593063E-1,1.059718375E0,1.768993235E-1,1.091237858E0
7.735103083E0,1.165784875E-1,1.216223779E0,3.879656821E-1,1.281915830E0
7.745035083E0,4.413444570E-2,1.370821238E0,6.640887469E-1,1.523847951E0
7.754967083E0,1.246642822E-2,1.416682119E0,9.347920275E-1,1.697344919E0
7.764899083E0,2.542729335E-2,1.410348415E0,1.219575988E0,1.864696970E0
7.774832083E0,2.732793080E-2,1.402971568E0,1.363177173E0,1.956355806E0
7.784764083E0,-1.872936264E-5,1.474125751E0,1.396884617E0,2.030845479E0
7.794696083E0,-7.596395597E-2,1.548668395E0,1.412124799E0,2.097198314E0
7.804629083E0,-1.856561319E-1,1.592568120E0,1.363302888E0,2.104598817E0
7.814561083E0,-3.755183487E-1,1.675896791E0,1.315879630E0,2.163604234E0
7.824493083E0,-5.962997101E-1,1.714598926E0,1.355382834E0,2.265498940E0
7.834425083E0,-8.202477772E-1,1.788200753E0,1.459162726E0,2.449413034E0
7.844358083E0,-1.047997777E0,1.922764481E0,1.478234589E0,2.642063605E0
7.854290083E0,-1.185316713E0,1.864025692E0,1.564730696E0,2.707018589E0
7.864222083E0,-1.165964183E0,1.565466276E0,1.840009423E0,2.682497309E0
7.874154083E0,-9.929494576E-1,1.128855268E0,2.193894024E0,2.659592794E0
7.884087083E0,-8.146431479E-1,6.569101202E-1,2.610028667E0,2.812014226E0
7.894019083E0,-7.429589883E-1,3.126792723E-1,2.909124273E0,3.018734904E0
7.903951083E0,-8.680837023E-1,4.995276332E-2,2.852261270E0,2.981854951E0
7.913884083E0,-1.114985818E0,-1.495776236E-1,2.607602658E0,2.839922263E0
7.923816083E0,-1.364395294E0,-3.098901504E-1,2.330534683E0,2.718271203E0
7.933748083E0,-1.564343318E0,-3.930504209E-1,1.990541897E0,2.562013992E0
7.943680083E0,-1.629629820E0,-3.657731599E-1,1.684534298E0,2.372159175E0
7.953613083E0,-1.566026439E0,-3.611982983E-1,1.374751151E0,2.114909867E0
7.963545083E0,-1.476746765E0,-3.545213628E-1,1.092587913E0,1.870886087E0
7.973477083E0,-1.378050735E0,-3.134663075E-1,8.986603278E-1,1.674776206E0
7.983409083E0,-1.261664685E0,-2.990219307E-1,7.128176880E-1,1.479635411E0
7.993342083E0,-1.080196055E0,-3.774272454E-1,5.954395115E-1,1.289892652E0
8.003274083E0,-8.423474018E-1,-4.931261015E-1,6.351912224E-1,1.164555875E0
8.013206083E0,-5.461392975E-1,-6.154510224E-1,6.537380058E-1,1.050914589E0
8.023139083E0,-2.640597472E-1,-7.511432630E-1,5.948618066E-1,9.938834542E-1
8.033071083E0,-1.294696337E-1,-9.176105690E-1,4.488451374E-1,1.029676405E0
8.043003083E0,-1.180801712E-1,-1.088191976E0,1.844667900E-1,1.110014730E0
8.052935083E0,-2.031205408E-1,-1.207599136E0,-1.425948787E-1,1.232836943E0
8.062868083E0,-2.544952190E-1,-1.255529932E0,-4.498309779E-1,1.357744872E0
8.072800083E0,-2.842956998E-1,-1.280720907E0,-7.312884575E-1,1.501949698E0
8.082732083E0,-2.646874458E-1,-1.346903202E0,-1.007462978E0,1.702700599E0
8.092665083E0,-2.157084815E-1,-1.425646486E0,-1.194290873E0,1.872252318E0
8.102597083E0,-1.656175229E-1,-1.483400604E0,-1.380397807E0,2.033077623E0
8.112529083E0,-1.291062384E-1,-1.510852697E0,-1.581615701E0,2.191084781E0
8.122461083E0,-1.012085330E-1,-1.521588185E0,-1.751862647E0,2.322605542E0
8.132394083E0,-1.178553641E-1,-1.491829950E0,-1.908138841E0,2.424961922E0
8.142321708E0,-1.455460232E-1,-1.458199689E0,-1.993030472E0,2.473802830E0
8.152253708E0,-1.332482963E-1,-1.391630309E0,-2.013621442E0,2.451338682E0
8.162186708E0,-1.105960824E-1,-1.282625930E0,-2.068211632E0,2.436156835E0
8.172118708E0,-9.360883369E-2,-1.136342627E0,-2.172159339E0,2.453225096E0
8.182050708E0,-7.628157855E-2,-1.003667550E0,-2.296063008E0,2.507004740E0
8.191982708E0,-4.071321698E-2,-8.858151644E-1,-2.350118762E0,2.511848775E0
8.201915708E0,2.460786318E-2,-7.752741373E-1,-2.329479845E0,2.455225424E0
8.211847708E0,8.501823236E-2,-6.348854131E-1,-2.258635565E0,2.347709991E0
8.221779708E0,7.082841041E-2,-5.333987993E-1,-2.164573746E0,2.230450727E0
8.231711708E0,4.676621351E-2,-4.200306433E-1,-1.978963240E0,2.023587983E0
8.241644708E0,2.727626516E-2,-2.280057424E-1,-1.652755265E0,1.668631349E0
8.251576708E0,-3.761000827E-2,-3.053182125E-2,-1.225894489E0,1.226851256E0
8.261508708E0,-1.142816189E-1,1.141844273E-1,-7.356153971E-1,7.531456594E-1
8.271441708E0,-1.996698796E-1,2.441399646E-1,-2.799097216E-1,4.216892640E-1
8.281373708E0,-2.797907125E-1,3.635863012E-1,1.193615520E-1,4.740517074E-1
8.291305708E0,-3.161079699E-1,4.601951677E-1,4.890295422E-1,7.421952130E-1
8.301237708E0,-3.482240942E-1,5.106420207E-1,7.604420900E-1,9.799425827E-1
8.311170708E0,-3.799733058E-1,5.381227648E-1,9.454637808E-1,1.152327030E0
8.321102708E0,-4.066664300E-1,5.698585278E-1,9.985524058E-1,1.219517624E0
8.331034708E0,-4.095512635E-1,6.224478006E-1,9.934682518E-1,1.241834397E0
8.340967708E0,-4.483366854E-1,6.774578208E-1,1.030705075E0,1.312367264E0
8.350899708E0,-5.058073966E-1,7.603432721E-1,1.120607185E0,1.445587589E0
8.360831708E0,-5.309497661E-1,8.487239367E-1,1.301089683E0,1.641668157E0
8.370763708E0,-4.812207684E-1,9.316000324E-1,1.530810998E0,1.855487634E0
8.380696708E0,-3.638925126E-1,9.393411613E-1,1.657305568E0,1.939443561E0
8.390628708E0,-2.974490845E-1,1.025163084E0,1.654545098E0,1.968998423E0
8.400560708E0,-1.419993215E-1,1.130388992E0,1.648294424E0,2.003700973E0
8.410493708E0,1.123258167E-1,1.166279787E0,1.737526444E0,2.095667858E0
8.420425708E0,2.738504530E-1,1.225599790E0,1.643423694E0,2.068315825E0
8.430357708E0,4.688399836E-1,1.276619670E0,1.508813188E0,2.031276926E0
8.440289708E0,6.201413664E-1,1.112860794E0,1.372880627E0,1.872921695E0
8.450222708E0,7.012757228E-1,7.712635320E-1,1.480272928E0,1.810481433E0
8.460154708E0,7.277193171E-1,4.855872864E-1,1.689804393E0,1.902842428E0
8.470086708E0,7.383084784E-1,3.043890899E-1,1.924482393E0,2.083598956E0
8.480019708E0,7.419518054E-1,9.569143832E-2,1.989385318E0,2.125394851E0
8.489951708E0,7.532134697E-1,-2.125375181E-1,1.956106474E0,2.106859100E0
8.499883708E0,7.559271625E-1,-4.921759290E-1,1.771651379E0,1.988067310E0
8.509815708E0,7.354214157E-1,-5.707742018E-1,1.393585033E0,1.675919775E0
8.519748708E0,6.545398052E-1,-5.354026401E-1,8.521743786E-1,1.200533013E0
8.529680708E0,5.253719975E-1,-5.314557695E-1,2.660623455E-1,7.932528868E-1
8.539612708E0,4.071830680E-1,-5.396149743E-1,-2.292155313E-1,7.138081893E-1
8.549545708E0,3.195488005E-1,-5.988671494E-1,-4.787168080E-1,8.306160850E-1
8.559477708E0,3.354230408E-1,-6.620866603E-1,-3.405067563E-1,8.165857047E-1
8.569409708E0,3.697970675E-1,-7.272760981E-1,-3.947279871E-2,8.168466783E-1
8.579341708E0,3.083059204E-1,-7.518197858E-1,1.869752455E-1,8.338136922E-1
8.589274708E0,2.710445021E-1,-7.978315258E-1,2.714996713E-1,8.852752890E-1
8.599206708E0,2.057562098E-1,-8.535005271E-1,1.195112407E-1,8.860483646E-1
8.609138708E0,2.136791322E-1,-8.715643305E-1,-1.078489691E-1,9.038332555E-1
8.619071708E0,2.406299541E-1,-9.576751059E-1,-4.126116961E-1,1.070183533E0
8.629003708E0,2.003327711E-1,-1.108045027E0,-7.743730813E-1,1.366583576E0
8.638935708E0,9.271973714E-2,-1.098496524E0,-1.041753389E0,1.516753667E0
8.648867708E0,-6.400561424E-2,-9.969514382E-1,-1.237776616E0,1.590628756E0
8.658800708E0,-2.676846738E-1,-9.206984836E-1,-1.429737198E0,1.721478794E0
8.668732708E0,-4.713558213E-1,-8.788575625E-1,-1.701618108E0,1.972326319E0
8.678664708E0,-6.035536196E-1,-8.206122780E-1,-1.996391451E0,2.241263106E0
8.688597708E0,-6.257228261E-1,-7.561835629E-1,-2.214625912E0,2.422377048E0
8.698529708E0,-5.556876545E-1,-6.820285892E-1,-2.364243296E0,2.522617317E0
8.708461708E0,-4.843837466E-1,-5.689855385E-1,-2.438448556E0,2.550373211E0
8.718394708E0,-4.388326211E-1,-4.205305803E-1,-2.481491080E0,2.554842073E0
8.728326708E0,-4.108346907E-1,-3.479473382E-1,-2.468270525E0,2.526303996E0
8.738258708E0,-3.964369820E-1,-2.782660693E-1,-2.418014292E0,2.466046918E0
8.748190708E0,-3.739867437E-1,-1.434327847E-1,-2.332609275E0,2.366749898E0
8.758123708E0,-3.297960459E-1,-2.502666771E-2,-2.075888441E0,2.102071499E0
8.768055708E0,-3.037217582E-1,4.533697128E-2,-1.818593996E0,1.844339033E0
8.777987708E0,-3.365783045E-1,1.653347003E-1,-1.638300948E0,1.680669663E0
8.787920708E0,-3.106732388E-1,2.792951792E-1,-1.391722110E0,1.453070573E0
8.797852708E0,-2.455042114E-1,3.546242738E-1,-1.111903020E0,1.192626941E0
8.807784708E0,-1.957977437E-1,4.203908318E-1,-8.393110889E-1,9.589099603E-1
8.817716708E0,-1.813028068E-1,5.354891789E-1,-6.028701532E-1,8.264815727E-1
8.827649708E0,-1.537985824E-1,6.985376179E-1,-4.303036165E-1,8.347275064E-1
8.837581708E0,-1.487537966E-1,8.457371789E-1,-2.097302699E-1,8.839603237E-1
8.847513708E0,-1.580025477E-1,9.996458352E-1,5.625664651E-2,1.013617981E0
8.857446708E0,-1.633288313E-1,1.120895453E0,3.461382097E-1,1.184438510E0
8.867378708E0,-1.716072461E-1,1.191630975E0,6.571434242E-1,1.371594294E0
8.877310708E0,-2.015023787E-1,1.257532019E0,8.808064395E-1,1.548486348E0
8.887242708E0,-1.908971740E-1,1.295938286E0,1.105100369E0,1.713809965E0
8.897175708E0,-1.248855811E-1,1.262667044E0,1.284868922E0,1.805772028E0
8.907107708E0,-9.044516112E-2,1.114860542E0,1.454305444E0,1.834693075E0
8.917039708E0,-1.021870188E-1,1.069305469E0,1.521188820E0,1.862222275E0
8.926972708E0,-1.906946411E-1,1.143566862E0,1.449381503E0,1.856021648E0
8.936904708E0,-2.934418232E-1,1.203328915E0,1.319172782E0,1.809509715E0
8.946836708E0,-4.293191647E-1,1.219896415E0,1.221724255E0,1.779065026E0
8.956768708E0,-6.228904349E-1,1.317960654E0,1.192669441E0,1.883473699E0
8.966701708E0,-8.302854730E-1,1.506398288E0,1.177688874E0,2.084600886E0
8.976633708E0,-1.037911915E0,1.685646438E0,1.186494196E0,2.307906743E0
8.986565708E0,-1.189654689E0,1.716388759E0,1.215298750E0,2.416240821E0
8.996498708E0,-1.252444503E0,1.511969515E0,1.365168734E0,2.391308161E0
9.006430708E0,-1.228290094E0,1.167603596E0,1.651572958E0,2.366365979E0
9.016362708E0,-1.101254436E0,7.772966892E-1,1.905685349E0,2.334221096E0
9.026295708E0,-9.664077763E-1,3.895795137E-1,2.222217937E0,2.454377466E0
9.036227708E0,-9.761069915E-1,8.231476307E-2,2.338314988E0,2.535207597E0
9.046159708E0,-1.125018544E0,-1.630180335E-1,2.311502581E0,2.575904848E0
9.056091708E0,-1.334432553E0,-3.435508168E-1,2.230339134E0,2.621669326E0
9.066024708E0,-1.519985755E0,-3.796579581E-1,2.090645059E0,2.612526292E0
9.075956708E0,-1.646589961E0,-3.897853357E-1,1.811132364E0,2.478586603E0
9.085888708E0,-1.733699587E0,-4.298457795E-1,1.507163104E0,2.337096976E0
9.095821708E0,-1.700944801E0,-4.881875432E-1,1.192521506E0,2.133927795E0
9.105753708E0,-1.618805893E0,-4.451175374E-1,9.528423822E-1,1.930432787E0
9.115685708E0,-1.506448866E0,-4.168573594E-1,7.572284603E-1,1.736822727E0
9.125617708E0,-1.370866700E0,-4.217204887E-1,6.278418571E-1,1.565665697E0
9.135550708E0,-1.152870952E0,-5.456580716E-1,6.421985257E-1,1.428031200E0
9.145482958E0,-9.040306299E-1,-7.206225514E-1,7.882660657E-1,1.399261102E0
9.155414958E0,-6.713254803E-1,-8.449390340E-1,8.516019362E-1,1.374709325E0
9.165347958E0,-4.957088166E-1,-9.167545366E-1,7.121815109E-1,1.262287058E0
9.175279958E0,-4.124428578E-1,-1.015471324E0,3.716671532E-1,1.157336422E0
9.185211958E0,-3.780627646E-1,-1.114169401E0,-2.817422390E-2,1.176902160E0
9.195144958E0,-3.382211163E-1,-1.264315374E0,-4.608874780E-1,1.387553298E0
9.205076958E0,-2.787973071E-1,-1.442645511E0,-8.702183014E-1,1.707698422E0
9.215008958E0,-2.485932040E-1,-1.502088305E0,-1.135433385E0,1.899283241E0
9.224940958E0,-2.140257990E-1,-1.557906995E0,-1.357012453E0,2.077104727E0
9.234873958E0,-1.687575508E-1,-1.634635329E0,-1.501769047E0,2.226167568E0
9.244805958E0,-1.014722698E-1,-1.714285516E0,-1.606680960E0,2.351700482E0
9.254737958E0,-7.856193784E-2,-1.690070441E0,-1.824458753E0,2.488204135E0
9.264670958E0,-5.957267560E-2,-1.629012646E0,-2.050126194E0,2.619207612E0
9.274602958E0,-4.036559545E-2,-1.563708603E0,-2.172009650E0,2.676647137E0
9.284534958E0,-1.226577736E-2,-1.483701736E0,-2.223838785E0,2.673383667E0
9.294466958E0,5.004588023E-2,-1.385702986E0,-2.227138953E0,2.623513917E0
9.304399958E0,6.735617844E-2,-1.229565956E0,-2.203617359E0,2.524341252E0
9.314331958E0,7.485925248E-2,-1.106911252E0,-2.161577632E0,2.429665468E0
9.324263958E0,1.662182512E-2,-9.915684915E-1,-2.082587596E0,2.306654602E0
9.334196958E0,-8.095415253E-2,-7.420256996E-1,-2.001959170E0,2.136585180E0
9.344128958E0,-1.802766204E-1,-5.387279516E-1,-1.941232912E0,2.022649916E0
9.354060958E0,-2.181887242E-1,-4.143372095E-1,-1.818420333E0,1.877747095E0
9.363993958E0,-1.591274241E-1,-2.910258633E-1,-1.637240848E0,1.670501477E0
9.373925958E0,-9.184956182E-2,-8.913670957E-2,-1.412692564E0,1.418478754E0
9.383857958E0,-7.028941590E-2,7.421753883E-2,-1.124556980E0,1.129193183E0
9.393789958E0,-1.010432486E-1,2.553560936E-1,-7.949675596E-1,8.410647380E-1
9.403722958E0,-1.323673311E-1,3.956196874E-1,-3.711578608E-1,5.583853553E-1
9.413654958E0,-1.774411776E-1,4.906299251E-1,6.362004519E-2,5.255954767E-1
9.423586958E0,-2.585673845E-1,5.976819187E-1,4.318262315E-1,7.813799732E-1
9.433519958E0,-2.955453955E-1,6.837488401E-1,6.828740966E-1,1.010532824E0
9.443451958E0,-2.839779219E-1,6.708533907E-1,8.771530992E-1,1.140212827E0
9.453383958E0,-2.999702029E-1,6.788588136E-1,9.989640498E-1,1.244492099E0
9.463316958E0,-3.104903306E-1,6.769713324E-1,1.021831341E0,1.264449967E0
9.473248958E0,-3.315677157E-1,6.686717945E-1,1.049183446E0,1.287573308E0
9.483180958E0,-3.754673683E-1,6.951105648E-1,1.095497487E0,1.350655095E0
9.493112958E0,-3.337531857E-1,6.535731143E-1,1.225271761E0,1.428229636E0
9.503045958E0,-2.754130666E-1,5.801560593E-1,1.272198005E0,1.425103917E0
9.512977958E0,-2.366742762E-1,6.537742585E-1,1.291065216E0,1.466384972E0
9.522909958E0,-1.674219371E-1,6.267735708E-1,1.366642233E0,1.512807392E0
9.532842958E0,-1.254092541E-1,7.211143023E-1,1.337825400E0,1.524962333E0
9.542774958E0,-9.601785913E-3,8.404021794E-1,1.356970938E0,1.596163570E0
9.552706958E0,1.617946133E-1,9.338441938E-1,1.300845269E0,1.609484666E0
9.562639958E0,3.499352819E-1,1.056087254E0,1.229213954E0,1.657933030E0
9.572571958E0,5.574129851E-1,1.124030730E0,1.095394576E0,1.665546035E0
9.582503958E0,6.770284890E-1,1.021623765E0,9.722206396E-1,1.564383477E0
9.592436958E0,7.028619263E-1,7.509643382E-1,9.153354174E-1,1.376880986E0
9.602368958E0,7.194759125E-1,4.568166465E-1,1.004506626E0,1.317330861E0
9.612300958E0,6.791176991E-1,2.025943279E-1,1.214132815E0,1.405832068E0
9.622232958E0,5.600335975E-1,-2.600139856E-2,1.317626193E0,1.431940113E0
9.632165958E0,4.657969464E-1,-2.765914267E-1,1.297981303E0,1.406493894E0
9.642097958E0,4.181694015E-1,-5.204074556E-1,1.310946919E0,1.471146285E0
9.652029958E0,4.285997379E-1,-6.526767361E-1,1.229985201E0,1.456896789E0
9.661962958E0,4.466589365E-1,-6.983475834E-1,8.861999112E-1,1.213484172E0
9.671894958E0,3.955484976E-1,-6.666340399E-1,3.461943430E-1,8.489464531E-1
9.681826958E0,2.630203316E-1,-6.133401775E-1,-1.442625046E-1,6.827719520E-1
9.691759958E0,8.885618940E-2,-6.459512687E-1,-3.647978443E-1,7.471451874E-1
9.701691958E0,-1.466404210E-1,-7.198583204E-1,-2.427676231E-1,7.737154084E-1
9.711623958E0,-3.757303103E-1,-7.341319585E-1,6.757744074E-2,8.274597930E-1
9.721555958E0,-5.788996753E-1,-6.817736506E-1,4.825794786E-1,1.016279045E0
9.731488958E0,-6.149790059E-1,-7.203167421E-1,8.383638400E-1,1.264875217E0
9.741420958E0,-5.839128953E-1,-7.946243280E-1,9.849821877E-1,1.393761817E0
9.751352958E0,-5.731974341E-1,-8.268220210E-1,8.643593913E-1,1.326388748E0
9.761285958E0,-6.601255041E-1,-8.519796664E-1,5.036119133E-1,1.189647003E0
9.771217958E0,-8.271301693E-1,-8.609785312E-1,4.045922399E-2,1.194598383E0
9.781149958E0,-1.030403797E0,-9.139315009E-1,-4.781934822E-1,1.457968374E0
9.791082958E0,-1.178992511E0,-9.157762975E-1,-1.042073817E0,1.820600837E0
9.801014958E0,-1.285613272E0,-8.433865982E-1,-1.569135404E0,2.196881507E0
9.810946958E0,-1.310307526E0,-7.935665667E-1,-1.929207528E0,2.463431630E0
9.820878958E0,-1.238548303E0,-6.290966696E-1,-2.266227005E0,2.658110110E0
9.830811958E0,-1.167544759E0,-4.816608810E-1,-2.431312029E0,2.739787611E0
9.840743958E0,-1.109679836E0,-3.937591034E-1,-2.496254715E0,2.760022313E0
9.850675958E0,-1.079317437E0,-2.809879482E-1,-2.545468975E0,2.779081262E0
9.860608958E0,-1.000765577E0,-2.024931711E-1,-2.528040179E0,2.726448674E0
9.870540958E0,-9.200364326E-1,-2.097466421E-1,-2.560710912E0,2.729047648E0
9.880472958E0,-8.053676366E-1,-7.995365739E-2,-2.638340301E0,2.759682801E0
9.890405958E0,-6.415460495E-1,7.623950601E-2,-2.563504711E0,2.643662271E0
9.900337958E0,-4.659198841E-1,1.028718191E-1,-2.314743108E0,2.363408472E0
9.910269958E0,-3.351979230E-1,1.510096067E-1,-2.056401426E0,2.089006551E0
9.920202958E0,-2.717244968E-1,2.107886159E-1,-1.826411723E0,1.858506342E0
9.930134958E0,-2.325228992E-1,2.890144211E-1,-1.535911524E0,1.580069759E0
9.940066958E0,-2.118843111E-1,3.993934804E-1,-1.215688174E0,1.297038107E0
9.949998958E0,-1.870911300E-1,5.288362169E-1,-8.465008253E-1,1.015497160E0
9.959931958E0,-1.327442572E-1,6.396064550E-1,-4.999790382E-1,8.226156416E-1
9.969863958E0,-6.620595803E-2,6.999327636E-1,-2.196301907E-1,7.365639980E-1
9.979795958E0,-6.480944194E-3,7.901868761E-1,4.310391963E-2,7.913881788E-1
9.989728958E0,2.399490824E-2,8.838768125E-1,2.427711314E-1,9.169251864E-1
9.999660958E0,1.803480478E-2,9.627937585E-1,4.074760866E-1,1.045626050E0
1.000959296E1,-1.765334705E-2,1.064006138E0,5.357411939E-1,1.191402253E0
1.001952596E1,-4.844089262E-2,1.158322311E0,6.761264098E-1,1.342089423E0
1.002945796E1,-3.857720627E-2,1.171393762E0,8.463014352E-1,1.445640918E0
1.003938996E1,-4.172451577E-2,1.171606600E0,9.406082529E-1,1.503045856E0
1.004932296E1,-2.312058505E-2,1.196259046E0,1.018328859E0,1.571166424E0
1.005925496E1,8.074273914E-4,1.210599343E0,1.107604732E0,1.640835050E0
1.006918696E1,-7.258313242E-4,1.190023575E0,1.140031051E0,1.647976770E0
1.007911896E1,-4.577991157E-2,1.258866938E0,1.069811254E0,1.652675978E0
1.008905196E1,-1.315571993E-1,1.357246342E0,9.488189131E-1,1.661229141E0
1.009898396E1,-2.246018407E-1,1.441974251E0,8.628174806E-1,1.695343544E0
1.010891596E1,-3.279051295E-1,1.445722901E0,9.286407566E-1,1.749288465E0
1.011884896E1,-4.566683099E-1,1.419160754E0,1.126178997E0,1.868379599E0
1.012878096E1,-6.323323725E-1,1.501142226E0,1.265514053E0,2.062716178E0
1.013871296E1,-8.442375143E-1,1.601655863E0,1.286303828E0,2.220949352E0
1.014864571E1,-1.007921326E0,1.482878448E0,1.420305639E0,2.287378849E0
1.015857771E1,-1.114631477E0,1.158034628E0,1.653239415E0,2.305785786E0
1.016850971E1,-1.145787708E0,7.578792554E-1,1.829211954E0,2.287624710E0
1.017844271E1,-1.080667486E0,3.814799505E-1,1.993431006E0,2.299377382E0
1.018837471E1,-9.717473806E-1,5.125903130E-2,2.091878237E0,2.307135674E0
1.019830671E1,-1.040702425E0,-1.934399271E-1,1.964803038E0,2.231800063E0
1.020823871E1,-1.256101059E0,-3.656252253E-1,1.815734122E0,2.237937014E0
1.021817171E1,-1.540063194E0,-5.306541163E-1,1.630510703E0,2.304767577E0
1.022810371E1,-1.805433667E0,-5.433431590E-1,1.491050516E0,2.403756260E0
1.023803571E1,-1.955726698E0,-4.481282687E-1,1.292164493E0,2.386498468E0
1.024796871E1,-2.037442998E0,-3.878463989E-1,1.109625530E0,2.352204842E0
1.025790071E1,-2.074449295E0,-3.170208299E-1,9.827169764E-1,2.317234287E0
1.026783271E1,-2.042159070E0,-2.804815793E-1,8.171320152E-1,2.217383213E0
1.027776571E1,-1.969032329E0,-2.576213050E-1,7.947921431E-1,2.138960402E0
1.028769771E1,-1.806483243E0,-2.951510739E-1,9.512297201E-1,2.062846054E0
1.029762971E1,-1.535923219E0,-4.136267728E-1,1.111075054E0,1.940266739E0
1.030756271E1,-1.219861040E0,-5.835135305E-1,1.146046082E0,1.772560470E0
1.031749471E1,-9.764891070E-1,-7.490493751E-1,1.014450985E0,1.594903365E0
1.032742671E1,-8.242564820E-1,-8.842212135E-1,7.776755887E-1,1.437367463E0
1.033735871E1,-7.483575764E-1,-9.655653387E-1,5.307821703E-1,1.331947896E0
1.034729171E1,-7.300888281E-1,-9.540767294E-1,1.990398055E-1,1.217747489E0
1.035722371E1,-6.881273083E-1,-8.555277568E-1,-1.674601632E-1,1.110625878E0
1.036715571E1,-5.883072972E-1,-8.773735392E-1,-5.073073536E-1,1.171857736E0
1.037708871E1,-4.562665331E-1,-9.919257563E-1,-8.125127149E-1,1.360982280E0
1.038702071E1,-2.916002060E-1,-1.075104153E0,-1.025301079E0,1.513975535E0
1.039695271E1,-1.231998745E-1,-1.127578236E0,-1.196260800E0,1.648529887E0
1.040688571E1,-2.666828264E-2,-1.160505661E0,-1.396174180E0,1.815705628E0
1.041681771E1,3.902948840E-2,-1.148367426E0,-1.567628576E0,1.943638444E0
1.042674971E1,1.226054045E-1,-1.134346973E0,-1.771352001E0,2.107003335E0
1.043668271E1,2.130981930E-1,-1.127427378E0,-1.978056922E0,2.286747148E0
1.044661471E1,3.180603918E-1,-1.150697542E0,-2.151496448E0,2.460529254E0
1.045654671E1,4.271339871E-1,-1.113009313E0,-2.329668710E0,2.616980985E0
1.046647971E1,4.657440291E-1,-9.786882448E-1,-2.411623870E0,2.643989007E0
1.047641171E1,4.994616693E-1,-9.200406718E-1,-2.428159795E0,2.644219505E0
1.048634371E1,4.622367230E-1,-8.712076503E-1,-2.417677492E0,2.611097473E0
1.049627671E1,3.769666310E-1,-8.244316792E-1,-2.286070116E0,2.459249481E0
1.050620871E1,3.005418779E-1,-6.768321687E-1,-2.156147908E0,2.279780912E0
1.051614071E1,2.080462901E-1,-4.975600451E-1,-2.021447355E0,2.092151684E0
1.052607271E1,1.845048151E-1,-3.792188323E-1,-1.779788364E0,1.829069592E0
1.053600571E1,1.718076046E-1,-2.564202869E-1,-1.400746118E0,1.434349645E0
1.054593771E1,1.394851649E-1,-8.533368051E-2,-9.545725733E-1,9.684765077E-1
1.055586971E1,8.487343155E-2,7.514783084E-2,-6.028198671E-1,6.133860840E-1
1.056580271E1,3.544530965E-2,2.158230686E-1,-3.084043729E-1,3.780862655E-1
1.057573471E1,1.549355004E-2,3.238375139E-1,-6.904275298E-2,3.314780343E-1
1.058566671E1,3.420348896E-2,3.892280960E-1,8.956531048E-2,4.008619890E-1
1.059559971E1,7.040880874E-2,3.976884323E-1,2.355813950E-1,4.675597109E-1
1.060553171E1,1.004758312E-1,3.520982766E-1,3.237989223E-1,4.887886365E-1
1.061546371E1,7.510295346E-2,3.984304440E-1,4.673533291E-1,6.187135092E-1
1.062539671E1,8.504862875E-2,4.408362061E-1,6.591759163E-1,7.975479412E-1
1.063532871E1,1.033413506E-1,4.452602094E-1,9.357451236E-1,1.041419716E0
1.064526071E1,1.393651143E-1,5.113366699E-1,1.159929711E0,1.275274386E0
1.065519371E1,1.837871790E-1,5.555223244E-1,1.320694227E0,1.444512382E0
1.066512571E1,2.351044815E-1,6.204807973E-1,1.458050001E0,1.601930192E0
1.067505771E1,2.965416149E-1,6.807907337E-1,1.607178558E0,1.770433808E0
1.068499071E1,3.975122850E-1,6.957198447E-1,1.678554350E0,1.859996458E0
1.069492271E1,5.352437055E-1,7.493487525E-1,1.691198954E0,1.925659180E0
1.070485471E1,7.402455148E-1,8.673718768E-1,1.578290974E0,1.947126034E0
1.071478671E1,9.276977469E-1,8.604031652E-1,1.434842986E0,1.913031916E0
1.072471971E1,1.020944903E0,6.942159408E-1,1.374720746E0,1.847734125E0
1.073465171E1,1.031808664E0,4.419565326E-1,1.502981760E0,1.875875493E0
1.074458371E1,1.040208263E0,3.057766342E-1,1.725362481E0,2.037745880E0
1.075451671E1,1.049502485E0,2.676106882E-1,1.879836563E0,2.169529085E0
1.076444871E1,1.048625841E0,8.488870740E-2,2.021025186E0,2.278456726E0
1.077438071E1,1.041634325E0,-1.086015058E-1,2.144010258E0,2.386121610E0
1.078431371E1,1.027672051E0,-2.468279296E-1,2.114157298E0,2.363619037E0
1.079424571E1,9.472158989E-1,-2.612261134E-1,1.873214591E0,2.115275383E0
1.080417771E1,8.867150509E-1,-3.021817660E-1,1.446328087E0,1.723206992E0
1.081411071E1,8.448803426E-1,-3.283597505E-1,9.975782597E-1,1.347889203E0
1.082404271E1,8.242291463E-1,-3.781938154E-1,7.595129675E-1,1.182896528E0
1.083397471E1,8.213488079E-1,-4.157317704E-1,7.183485693E-1,1.167677796E0
1.084390771E1,8.257830439E-1,-4.650056720E-1,7.281514263E-1,1.195136984E0
1.085383971E1,8.651044728E-1,-4.927852088E-1,7.107337403E-1,1.223268352E0
1.086377171E1,9.246425767E-1,-5.366913664E-1,6.478521985E-1,1.250085592E0
1.087370471E1,9.036525343E-1,-5.945472264E-1,4.356666827E-1,1.166138828E0
1.088363671E1,7.809862091E-1,-7.147116011E-1,1.087734139E-1,1.064229199E0
1.089356871E1,6.307737972E-1,-8.425036687E-1,-2.023323727E-1,1.071739896E0
1.090350171E1,4.786801898E-1,-8.821770269E-1,-5.526092416E-1,1.145752157E0
1.091343371E1,2.981451773E-1,-7.932356143E-1,-9.329764670E-1,1.260380250E0
1.092336571E1,1.009878828E-1,-7.735135406E-1,-1.247229225E0,1.471088879E0
1.093329771E1,-4.435230474E-2,-7.628014416E-1,-1.561200732E0,1.738154450E0
1.094323071E1,-1.587738503E-1,-6.683332407E-1,-1.837678138E0,1.961871401E0
1.095316271E1,-2.191437572E-1,-5.944513321E-1,-2.164927502E0,2.255727701E0
1.096309471E1,-2.185170271E-1,-5.586359668E-1,-2.371208500E0,2.445905473E0
1.097302771E1,-1.871536221E-1,-5.417679191E-1,-2.448854846E0,2.515040559E0
1.098295971E1,-1.625725488E-1,-4.884898442E-1,-2.489859615E0,2.542528872E0
1.099289171E1,-1.506095019E-1,-4.146745938E-1,-2.509861770E0,2.548341489E0
1.100282471E1,-1.445400098E-1,-3.544646448E-1,-2.532172406E0,2.560943985E0
1.101275671E1,-1.030024405E-1,-2.841255641E-1,-2.536739666E0,2.554679035E0
1.102268871E1,-2.000911715E-2,-2.272035044E-1,-2.410773100E0,2.421538506E0
1.103262171E1,3.935271151E-2,-1.866179806E-1,-2.248587710E0,2.256661604E0
1.104255371E1,1.040353054E-1,-6.303473890E-2,-2.120180515E0,2.123667144E0
1.105248571E1,1.699145868E-1,8.458991468E-2,-1.929343768E0,1.938657731E0
1.106241871E1,2.438500523E-1,1.845281857E-1,-1.703285149E0,1.730518361E0
1.107235071E1,2.680213272E-1,2.690654755E-1,-1.438482293E0,1.487771142E0
1.108228271E1,3.028221458E-1,3.932579970E-1,-1.065986590E0,1.175874361E0
1.109221571E1,3.494182419E-1,5.565052414E-1,-7.318433583E-1,9.835577728E-1
1.110214771E1,4.008693177E-1,7.645404035E-1,-5.186562145E-1,1.007086147E0
1.111207971E1,4.205456369E-1,9.269678682E-1,-3.894193000E-1,1.089851115E0
1.112201271E1,4.479276727E-1,1.043468378E0,-3.119466162E-1,1.177614600E0
1.113194471E1,4.125500811E-1,1.151669349E0,-2.267170161E-1,1.244162555E0
1.114187671E1,3.771224958E-1,1.242655533E0,-5.762021720E-2,1.299897781E0
1.115180983E1,3.831669819E-1,1.294617984E0,1.938311058E-1,1.363973298E0
1.116174183E1,3.840789648E-1,1.328430094E0,5.023927689E-1,1.471272123E0
1.117167383E1,3.940710158E-1,1.380559191E0,8.382077193E-1,1.662476413E0
1.118160683E1,3.855894468E-1,1.365392098E0,1.146174721E0,1.823921953E0
1.119153883E1,3.609202632E-1,1.336491650E0,1.374799683E0,1.951037553E0
1.120147083E1,2.962554302E-1,1.360045404E0,1.454902444E0,2.013512330E0
1.121140283E1,2.008347546E-1,1.370356384E0,1.491275634E0,2.035218473E0
1.122133583E1,1.114881299E-1,1.410050207E0,1.441489516E0,2.019545299E0
1.123126783E1,2.563580140E-2,1.479969458E0,1.380484931E0,2.024031975E0
1.124119983E1,-6.507499689E-2,1.504405557E0,1.396389942E0,2.053625016E0
1.125113283E1,-1.517969709E-1,1.605900941E0,1.427230496E0,2.153821498E0
1.126106483E1,-2.077502200E-1,1.708207335E0,1.454472674E0,2.253136306E0
1.127099683E1,-2.096189901E-1,1.592722487E0,1.560003807E0,2.239267049E0
1.128092983E1,-1.271636015E-1,1.278497795E0,1.832595153E0,2.238109066E0
1.129086183E1,7.398799907E-2,7.877345538E-1,2.322279584E0,2.453361453E0
1.130079383E1,2.398736168E-1,3.309833962E-1,2.823612252E0,2.853046707E0
1.131072683E1,2.847561498E-1,1.020163715E-2,3.123406016E0,3.136376138E0
1.132065883E1,9.069703907E-2,-2.098407823E-1,2.996789238E0,3.005495774E0
1.133059083E1,-2.209733693E-1,-4.422436309E-1,2.743399563E0,2.787588532E0
1.134052383E1,-5.292621500E-1,-5.814886397E-1,2.482967502E0,2.604491328E0
1.135045583E1,-7.276143596E-1,-5.294951981E-1,2.149776197E0,2.330520439E0
1.136038783E1,-8.236990231E-1,-4.469219881E-1,1.840758451E0,2.065577648E0
1.137032083E1,-7.963710375E-1,-4.430873841E-1,1.563044359E0,1.809320571E0
1.138025283E1,-6.728353775E-1,-3.892175710E-1,1.327902675E0,1.538675819E0
1.139018483E1,-5.114179462E-1,-3.148094130E-1,1.142381047E0,1.290615256E0
1.140011783E1,-3.047099559E-1,-3.585401541E-1,9.955083454E-1,1.101106746E0
1.141004983E1,-5.846894056E-2,-4.681619990E-1,9.798050630E-1,1.087479763E0
1.141998183E1,2.083350512E-1,-5.767523950E-1,8.730442607E-1,1.066889451E0
1.142991483E1,3.898037544E-1,-7.059197277E-1,6.655283314E-1,1.045560897E0
1.143984683E1,4.659464890E-1,-8.747294283E-1,3.614918286E-1,1.054956893E0
1.144977883E1,4.569616209E-1,-1.026407372E0,-1.234581113E-2,1.123600656E0
1.145971183E1,4.199159283E-1,-1.106974987E0,-4.211071157E-1,1.256604238E0
1.146964383E1,3.858819538E-1,-1.127780550E0,-7.510643256E-1,1.408861764E0
1.147957583E1,3.424400285E-1,-1.130227609E0,-1.046769131E0,1.578101782E0
1.148950883E1,2.718860627E-1,-1.159895797E0,-1.229219216E0,1.711800272E0
1.149944083E1,1.998987798E-1,-1.167683703E0,-1.358400582E0,1.802414185E0
1.150937283E1,1.584341819E-1,-1.176474992E0,-1.489886920E0,1.904982371E0
1.151930583E1,1.237666707E-1,-1.174620840E0,-1.661817865E0,2.038796440E0
1.152923783E1,1.280461930E-1,-1.163008270E0,-1.826042179E0,2.168735600E0
1.153916983E1,1.756450957E-1,-1.179779254E0,-1.933595864E0,2.271898600E0
1.154910283E1,2.297936565E-1,-1.200680126E0,-2.004337233E0,2.347723500E0
1.155903483E1,2.623449416E-1,-1.146258920E0,-2.062918732E0,2.374524811E0
1.156896683E1,2.932834367E-1,-1.108594081E0,-2.135828249E0,2.424202615E0
1.157889983E1,3.226947853E-1,-1.002519157E0,-2.197462580E0,2.436804952E0
1.158883183E1,3.550539345E-1,-8.595021093E-1,-2.270534064E0,2.453595751E0
1.159876383E1,3.542586401E-1,-7.553737235E-1,-2.348275720E0,2.492084971E0
1.160869683E1,3.342507472E-1,-6.804931104E-1,-2.334293273E0,2.454326694E0
1.161862883E1,3.363803397E-1,-5.997553414E-1,-2.259090478E0,2.361429227E0
1.162856083E1,3.181420335E-1,-4.609401029E-1,-2.172460470E0,2.243493844E0
1.163849383E1,3.245809508E-1,-2.999305880E-1,-2.037264658E0,2.084648277E0
1.164842583E1,3.366933850E-1,-1.960705894E-1,-1.828457664E0,1.869508903E0
1.165835783E1,3.722687221E-1,-6.543677509E-2,-1.509737048E0,1.556332846E0
1.166829083E1,3.923714495E-1,1.235750556E-1,-1.193187504E0,1.262110363E0
1.167822283E1,3.987533930E-1,3.051667696E-1,-9.031527436E-1,1.033351781E0
1.168815483E1,3.528905012E-1,4.043601054E-1,-6.279190403E-1,8.260273130E-1
1.169808683E1,3.201698114E-1,4.727906549E-1,-3.277703512E-1,6.583867515E-1
1.170801983E1,2.820233073E-1,5.522139698E-1,-4.816643894E-2,6.219303982E-1
1.171795183E1,2.226557228E-1,6.576720124E-1,1.732097304E-1,7.156183743E-1
1.172788483E1,1.506653062E-1,7.285923064E-1,3.281925201E-1,8.131771724E-1
1.173781683E1,4.800706577E-2,7.707583326E-1,4.583345836E-1,8.980220912E-1
1.174774883E1,-3.377376429E-2,8.256227571E-1,5.884439027E-1,1.014425863E0
1.175768183E1,-8.354730131E-2,8.158842194E-1,8.294257861E-1,1.166445175E0
1.176761383E1,-7.257099488E-2,8.287416619E-1,1.010127554E0,1.308601149E0
1.177754583E1,-2.752818880E-3,8.466920292E-1,1.144215319E0,1.423419708E0
1.178747883E1,7.935040746E-2,8.341433197E-1,1.307114654E0,1.552623677E0
1.179741083E1,2.074675071E-1,8.297222400E-1,1.519339930E0,1.743523899E0
1.180734283E1,3.269283887E-1,8.733319438E-1,1.674959482E0,1.917049848E0
1.181727483E1,4.297208684E-1,9.307615417E-1,1.700342830E0,1.985483017E0
1.182720783E1,5.789672107E-1,9.918444800E-1,1.726868139E0,2.073892975E0
1.183713983E1,7.951871956E-1,1.033471393E0,1.719602973E0,2.158105693E0
1.184707183E1,1.000211846E0,1.059917765E0,1.593275049E0,2.159253293E0
1.185700483E1,1.158732712E0,9.264024425E-1,1.483524565E0,2.098029580E0
1.186693683E1,1.306708418E0,5.995313931E-1,1.547943340E0,2.112593990E0
1.187686983E1,1.417659481E0,3.347361392E-1,1.736755196E0,2.266743324E0
1.188680183E1,1.479329626E0,1.659591830E-1,1.894872678E0,2.409668247E0
1.189673383E1,1.487174105E0,-2.975531101E-2,2.010125976E0,2.500635647E0
1.190666583E1,1.534013810E0,-2.667254198E-1,2.048603579E0,2.573153210E0
1.191659883E1,1.616553984E0,-5.233597147E-1,1.982901925E0,2.611331503E0
1.192653083E1,1.695261453E0,-7.348242688E-1,1.889823022E0,2.642973545E0
1.193646283E1,1.723693978E0,-8.453261197E-1,1.712119122E0,2.572362546E0
1.194639583E1,1.670813952E0,-8.567176652E-1,1.427929239E0,2.358933304E0
1.195632783E1,1.583821124E0,-8.467943555E-1,1.085104646E0,2.098333178E0
1.196625983E1,1.484814607E0,-7.620646924E-1,7.513683808E-1,1.830292724E0
1.197619283E1,1.403240248E0,-7.203360379E-1,5.147502744E-1,1.659197109E0
1.198612483E1,1.353835076E0,-7.548515671E-1,3.383017713E-1,1.586542905E0
1.199605683E1,1.306498942E0,-8.213706619E-1,1.908028328E-1,1.554990344E0
1.200598983E1,1.169494367E0,-8.979878980E-1,-7.338255644E-4,1.474482919E0
1.201592183E1,1.031411053E0,-9.904388094E-1,-1.595336777E-1,1.438828965E0
1.202585383E1,8.932090417E-1,-1.087245896E0,-2.715756851E-1,1.433066427E0
1.203578683E1,6.550243201E-1,-1.139953868E0,-4.205364275E-1,1.380363201E0
1.204571883E1,3.163171541E-1,-1.031287458E0,-6.574790543E-1,1.263285031E0
1.205565083E1,-4.960675433E-2,-9.058120573E-1,-1.057126304E0,1.393008376E0
1.206558383E1,-3.461035284E-1,-8.600336212E-1,-1.441865492E0,1.714182482E0
1.207551583E1,-5.478446379E-1,-7.803647232E-1,-1.828163549E0,2.061864401E0
1.208544783E1,-6.730012192E-1,-7.005554920E-1,-2.155681885E0,2.364460409E0
1.209538083E1,-7.060876890E-1,-6.710902029E-1,-2.340245154E0,2.534890385E0
1.210531283E1,-6.867322357E-1,-5.669349200E-1,-2.559689988E0,2.710171434E0
1.211524583E1,-6.506688023E-1,-5.153010821E-1,-2.622112523E0,2.750341648E0
1.212517783E1,-5.787806845E-1,-4.487088972E-1,-2.669249268E0,2.767890606E0
1.213510983E1,-4.505049426E-1,-3.563889635E-1,-2.608742280E0,2.671236433E0
1.214504283E1,-3.058048105E-1,-2.271321684E-1,-2.525136452E0,2.553707051E0
1.215497833E1,-1.313454205E-1,-7.878362954E-2,-2.361176432E0,2.366138758E0
1.216491033E1,4.087762881E-2,1.437947273E-2,-1.989156691E0,1.989628632E0
1.217484333E1,2.040235702E-1,7.404563069E-2,-1.593796620E0,1.608507395E0
1.218477533E1,3.158630081E-1,2.135982031E-1,-1.250307784E0,1.307158440E0
1.219470733E1,3.428729418E-1,3.342145675E-1,-1.021254221E0,1.127927930E0
1.220464033E1,3.409361612E-1,3.762735897E-1,-9.132865530E-1,1.044945744E0
1.221457233E1,3.249340861E-1,4.821491235E-1,-8.596231467E-1,1.037787017E0
1.222450433E1,3.092350430E-1,6.264338475E-1,-8.213642299E-1,1.078278663E0
1.223443733E1,3.191143524E-1,7.571927923E-1,-6.955982226E-1,1.076583384E0
1.224436933E1,3.726974326E-1,8.221413249E-1,-4.807270807E-1,1.022701452E0
1.225430133E1,3.902242788E-1,9.067628145E-1,-2.156534994E-1,1.010445556E0
1.226423433E1,3.534181394E-1,1.042508850E0,4.313257098E-2,1.101630383E0
1.227416633E1,3.210275248E-1,1.067158372E0,3.258477867E-1,1.161060912E0
1.228409833E1,2.637298546E-1,1.072745971E0,5.779469812E-1,1.246739775E0
1.229403133E1,2.248967413E-1,1.037933988E0,8.430480444E-1,1.355955572E0
1.230396333E1,2.193585510E-1,1.078105529E0,1.057331541E0,1.525902911E0
1.231389533E1,2.301861326E-1,1.148044660E0,1.138911309E0,1.633435388E0
1.232382833E1,2.731847293E-1,1.159841418E0,1.178883460E0,1.676194566E0
1.233376033E1,2.954951095E-1,1.252765369E0,1.175589724E0,1.743200972E0
1.234369233E1,2.535327125E-1,1.420742426E0,1.081796291E0,1.803627205E0
1.235362533E1,1.285921494E-1,1.555092146E0,1.000048708E0,1.853360446E0
1.236355733E1,-9.756229151E-2,1.703633643E0,9.558168608E-1,1.955881351E0
1.237348933E1,-2.770223300E-1,1.853196648E0,9.717388290E-1,2.110771314E0
1.238342233E1,-4.112294143E-1,1.852997843E0,9.822421825E-1,2.137173447E0
1.239335433E1,-4.015115977E-1,1.578124913E0,1.134614190E0,1.984701279E0
1.240328633E1,-2.718788998E-1,1.134075077E0,1.495928848E0,1.896799287E0
1.241321933E1,-1.240862484E-1,6.645354742E-1,2.053613473E0,2.162020604E0
1.242315133E1,-7.112132851E-2,2.991067153E-1,2.628585976E0,2.646504733E0
1.243308333E1,-1.837525891E-1,8.894725978E-2,2.966969023E0,2.973984165E0
1.244301633E1,-4.155076393E-1,-2.467466533E-2,2.947865000E0,2.977106565E0
1.245294833E1,-6.418165563E-1,-2.267655480E-1,2.815092859E0,2.896221489E0
1.246288033E1,-8.168414086E-1,-3.515281731E-1,2.607688612E0,2.755148243E0
1.247281333E1,-9.699749433E-1,-3.007907134E-1,2.335828752E0,2.547041893E0
1.248274533E1,-1.035793176E0,-3.138691807E-1,2.026111094E0,2.297064982E0
1.249267733E1,-9.925279465E-1,-4.354170066E-1,1.674679985E0,1.994806443E0
1.250261033E1,-8.933080789E-1,-4.526399803E-1,1.386392373E0,1.710253223E0
1.251254233E1,-7.722123159E-1,-4.279887038E-1,1.128019116E0,1.432450110E0
1.252247433E1,-6.168143007E-1,-4.597952181E-1,1.004803664E0,1.265504614E0
1.253240733E1,-4.398322026E-1,-5.218318373E-1,8.401419783E-1,1.082404442E0
1.254233933E1,-2.593665161E-1,-6.319922107E-1,6.338627350E-1,9.319158283E-1
1.255227133E1,-7.731243353E-2,-7.789830261E-1,3.754333448E-1,8.681831396E-1
1.256220433E1,2.660121325E-2,-9.153330785E-1,1.696593010E-1,9.313036817E-1
1.257213633E1,4.409250107E-2,-1.008142424E0,-5.672793210E-2,1.010699438E0
1.258206833E1,-1.765347496E-3,-1.021936591E0,-3.702807784E-1,1.086952330E0
1.259200133E1,-3.488076098E-2,-9.881051856E-1,-7.108828443E-1,1.217753236E0
1.260193333E1,-6.327206276E-2,-9.692327124E-1,-9.512870228E-1,1.359544926E0
1.261186533E1,-3.718167689E-2,-1.023932245E0,-1.161365787E0,1.548738264E0
1.262179833E1,-4.640350342E-2,-1.031111457E0,-1.397987986E0,1.737732583E0
1.263173033E1,-8.144444156E-2,-1.071581790E0,-1.661441304E0,1.978713708E0
1.264166233E1,-1.025889966E-1,-1.139922293E0,-1.883097555E0,2.203634211E0
1.265159533E1,-9.958930191E-2,-1.166203188E0,-1.963056475E0,2.285506209E0
1.266152733E1,-7.253005067E-2,-1.240482123E0,-1.974667291E0,2.333102530E0
1.267146033E1,-5.267659737E-2,-1.252162521E0,-1.974406505E0,2.338582231E0
1.268139233E1,-9.559649415E-3,-1.189256421E0,-1.993504096E0,2.321310148E0
1.269132433E1,4.313492814E-2,-1.109388717E0,-2.015170369E0,2.300764126E0
1.270125733E1,8.679312726E-2,-1.068802609E0,-2.046084598E0,2.310050702E0
1.271118933E1,1.130981060E-1,-1.007733704E0,-2.060590956E0,2.296596065E0
1.272112133E1,1.345491099E-1,-8.867314231E-1,-2.080436990E0,2.265527345E0
1.273105433E1,1.522432048E-1,-7.301693004E-1,-2.130211414E0,2.257017028E0
1.274098633E1,1.657799110E-1,-5.911611038E-1,-2.133817391E0,2.220389851E0
1.275091833E1,2.054347226E-1,-4.585988778E-1,-2.043237004E0,2.104123050E0
1.276085133E1,2.168685873E-1,-3.557276434E-1,-1.849287785E0,1.895636951E0
1.277078333E1,1.922082842E-1,-1.945900744E-1,-1.610930132E0,1.633984459E0
1.278071533E1,1.671461312E-1,2.787952423E-3,-1.443318526E0,1.452967298E0
1.279064833E1,1.708094849E-1,1.270845544E-1,-1.230559983E0,1.248841157E0
1.280058033E1,1.696829457E-1,2.256235868E-1,-9.583586454E-1,9.990743707E-1
1.281051233E1,1.319741789E-1,3.204046136E-1,-5.375719571E-1,6.395779150E-1
1.282044533E1,4.061474165E-2,5.036996216E-1,-5.341548443E-2,5.081496630E-1
1.283037733E1,-9.763894485E-2,7.003520089E-1,3.842807668E-1,8.047968736E-1
1.284030933E1,-1.680263199E-1,8.356834763E-1,7.996529335E-1,1.168779077E0
1.285024233E1,-1.635480471E-1,9.142928588E-1,1.157583808E0,1.484142738E0
1.286017433E1,-1.428328421E-1,9.843419176E-1,1.311231093E0,1.645799870E0
1.287010633E1,-1.084343302E-1,1.012072338E0,1.311708226E0,1.660309276E0
1.288003933E1,-7.558202315E-2,9.705150068E-1,1.403337019E0,1.707912998E0
1.288997133E1,-6.668676361E-3,8.741295040E-1,1.589200124E0,1.813754089E0
1.289990333E1,4.503843438E-2,8.117484838E-1,1.845112873E0,2.016285093E0
1.290983633E1,6.595139402E-2,7.716184580E-1,1.965560253E0,2.112622005E0
1.291976833E1,1.304737651E-1,7.571044993E-1,2.034669079E0,2.174881350E0
1.292970033E1,2.099884610E-1,7.507725495E-1,2.018958780E0,2.164243316E0
1.293963333E1,3.030111936E-1,8.182774848E-1,1.917871531E0,2.107041774E0
1.294956533E1,4.435451480E-1,8.769010842E-1,1.692299985E0,1.956927962E0
1.295949833E1,6.208587467E-1,8.814326763E-1,1.423582419E0,1.785770436E0
1.296943033E1,8.644498770E-1,8.501231754E-1,1.153260376E0,1.673317812E0
1.297936233E1,1.030833275E0,7.225562257E-1,1.045097997E0,1.636134030E0
1.298929533E1,1.063497869E0,4.230706108E-1,1.143490849E0,1.617896096E0
1.299922733E1,9.315771552E-1,2.332296449E-1,1.463526503E0,1.750469048E0
1.300915933E1,7.599589638E-1,2.621739471E-1,1.715112897E0,1.894171337E0
1.301909233E1,6.796061609E-1,2.560273540E-1,1.805859929E0,1.946418409E0
1.302902433E1,7.459993212E-1,-3.400740623E-2,1.809788674E0,1.957806562E0
1.303895633E1,8.858772911E-1,-2.826064575E-1,1.700509475E0,1.938137627E0
1.304888933E1,9.924714477E-1,-3.228136665E-1,1.388642381E0,1.737105610E0
1.305882133E1,1.061897705E0,-4.116662014E-1,8.470007622E-1,1.419332973E0
1.306875333E1,1.049035950E0,-4.933857179E-1,2.126316583E-1,1.178608550E0
1.307868633E1,9.936215951E-1,-5.344781953E-1,-3.610421777E-1,1.184610598E0
1.308861833E1,8.892686762E-1,-5.528074622E-1,-6.917256117E-1,1.254941907E0
1.309855033E1,7.976581559E-1,-6.327862626E-1,-7.442113888E-1,1.261161203E0
1.310848333E1,6.776272438E-1,-7.221352261E-1,-5.755215561E-1,1.145374623E0
1.311841533E1,5.555951223E-1,-7.226451033E-1,-3.594248378E-1,9.798408541E-1
1.312834733E1,4.498432571E-1,-6.488035405E-1,-1.582543069E-1,8.052014752E-1
1.313828033E1,3.520283293E-1,-6.055364835E-1,-1.037810612E-1,7.080740683E-1
1.314821487E1,2.909029439E-1,-6.756603867E-1,-1.443320864E-1,7.496487391E-1
1.315814687E1,1.778029376E-1,-7.661741155E-1,-4.241956151E-1,8.936322397E-1
1.316807987E1,2.165775330E-2,-7.548468894E-1,-8.553190112E-1,1.140979183E0
1.317801187E1,-1.017369294E-1,-8.032846391E-1,-1.349034512E0,1.573375584E0
1.318794488E1,-2.430162759E-1,-7.399727422E-1,-1.816504201E0,1.976437219E0
1.319787687E1,-3.365577296E-1,-6.986960775E-1,-2.174254396E0,2.308425761E0
1.320780888E1,-3.753705604E-1,-7.568635941E-1,-2.388391128E0,2.533408324E0
1.321774187E1,-3.664385730E-1,-7.740514845E-1,-2.528907906E0,2.669982795E0
1.322767387E1,-3.336836404E-1,-6.978295201E-1,-2.567538705E0,2.681523040E0
1.323760587E1,-3.127642762E-1,-6.425844419E-1,-2.587142665E0,2.684034916E0
1.324753887E1,-3.029435851E-1,-6.024883300E-1,-2.579231967E0,2.665934085E0
1.325747088E1,-2.517803203E-1,-5.126750976E-1,-2.546691628E0,2.609955427E0
1.326740287E1,-1.628664810E-1,-4.406040716E-1,-2.534706005E0,2.577865778E0
1.327733587E1,-5.889812618E-2,-3.737622106E-1,-2.452288331E0,2.481307163E0
1.328726787E1,2.229499474E-2,-2.265614802E-1,-2.279920015E0,2.291257830E0
1.329719988E1,1.255712037E-1,-2.010915935E-2,-2.020288437E0,2.024287004E0
1.330713288E1,2.320828415E-1,1.735424370E-1,-1.669464853E0,1.694429792E0
1.331706487E1,3.034472862E-1,2.789437616E-1,-1.252650763E0,1.318720521E0
1.332699687E1,3.509093915E-1,3.009772396E-1,-7.941080189E-1,9.188755332E-1
1.333692987E1,3.724425671E-1,4.143138206E-1,-4.280500996E-1,7.025640864E-1
1.334686187E1,4.095642735E-1,5.815137827E-1,-1.747276676E-1,7.324144533E-1
1.335679387E1,4.426898465E-1,7.206628972E-1,-5.145140469E-2,8.473349743E-1
1.336672687E1,4.326042766E-1,8.566059834E-1,-2.350112915E-2,9.599336300E-1
1.337665888E1,3.864602434E-1,9.615412849E-1,6.373231173E-2,1.038255734E0
1.338659187E1,2.921081281E-1,1.075854351E0,2.028457582E-1,1.133109061E0
1.339652387E1,2.097180456E-1,1.195686604E0,3.856572014E-1,1.273726654E0
1.340645587E1,1.545442120E-1,1.292728164E0,6.090167463E-1,1.437334831E0
1.341638887E1,1.035463137E-1,1.350340780E0,7.774703515E-1,1.561602449E0
1.342632088E1,1.131148619E-1,1.297403013E0,9.814054459E-1,1.630707270E0
1.343625287E1,1.567721108E-1,1.295818418E0,1.207841796E0,1.778371353E0
1.344618587E1,1.989465059E-1,1.407425977E0,1.375289680E0,1.977839553E0
1.345611787E1,2.381859459E-1,1.515118825E0,1.405311624E0,2.080196712E0
1.346604987E1,1.524635900E-1,1.603013002E0,1.290001608E0,2.063249858E0
1.347598288E1,-8.361046951E-2,1.754193932E0,1.071644940E0,2.057330780E0
1.348591487E1,-3.829160998E-1,1.833959894E0,1.004353428E0,2.125737387E0
1.349584688E1,-6.334936295E-1,1.899154009E0,1.082090406E0,2.275745983E0
1.350577987E1,-7.980923847E-1,1.977114936E0,1.122654880E0,2.409624224E0
1.351571187E1,-8.630031297E-1,1.860336683E0,1.230596820E0,2.391651210E0
1.352564387E1,-8.007699709E-1,1.467447646E0,1.449324785E0,2.212504796E0
1.353557687E1,-6.499868707E-1,1.005167361E0,2.005545852E0,2.335606671E0
1.354550888E1,-4.493111970E-1,5.438518667E-1,2.666933185E0,2.758656923E0
1.355544188E1,-3.220837878E-1,1.355314422E-1,3.081794305E0,3.101542016E0
1.356537387E1,-4.057160747E-1,-1.596658248E-1,3.178158174E0,3.207925823E0
1.357530587E1,-5.628845171E-1,-3.150795543E-1,3.021437007E0,3.089530011E0
1.358523887E1,-7.483854237E-1,-3.724173510E-1,2.688747393E0,2.815694935E0
1.359517088E1,-8.897129184E-1,-3.942251265E-1,2.421951807E0,2.610144264E0
1.360510287E1,-8.949313391E-1,-3.192725927E-1,2.017941949E0,2.230454393E0
1.361503587E1,-8.249775168E-1,-3.024384588E-1,1.557483657E0,1.788242787E0
1.362496787E1,-6.986003293E-1,-3.843292987E-1,1.183185257E0,1.426772155E0
1.363489987E1,-5.728746312E-1,-4.556717616E-1,9.844997925E-1,1.226809659E0
1.364483288E1,-4.497533927E-1,-4.707330197E-1,8.115941173E-1,1.040457929E0
1.365476487E1,-2.622026350E-1,-5.701181442E-1,6.918817323E-1,9.340691900E-1
1.366469688E1,-4.943108205E-2,-7.708793700E-1,5.571396643E-1,9.524195716E-1
1.367462987E1,1.197293601E-1,-9.101641399E-1,3.096322882E-1,9.688168223E-1
1.368456187E1,1.860420481E-1,-1.051110104E0,-1.460634470E-3,1.067448466E0
1.369449387E1,1.518481523E-1,-1.193455306E0,-3.312114376E-1,1.247835905E0
1.370442687E1,9.503892560E-2,-1.232626389E0,-6.860859722E-1,1.413900340E0
1.371435888E1,1.946689753E-2,-1.228975387E0,-1.008249428E0,1.589756702E0
1.372429188E1,-4.428637281E-2,-1.265110011E0,-1.207047159E0,1.749121913E0
1.373422387E1,-7.645897759E-2,-1.282870343E0,-1.361633508E0,1.872337604E0
1.374415587E1,-7.990977586E-2,-1.260086668E0,-1.572069536E0,2.016334945E0
1.375408887E1,-4.390094994E-2,-1.310382662E0,-1.761659072E0,2.196012910E0
1.376402088E1,-2.009873486E-2,-1.348044578E0,-1.947166082E0,2.368350458E0
1.377395287E1,-1.063372811E-2,-1.318970468E0,-2.147220379E0,2.519990383E0
1.378388587E1,-9.702696064E-3,-1.278788987E0,-2.295915073E0,2.628045174E0
1.379381787E1,1.796691312E-2,-1.207413779E0,-2.371187450E0,2.660958618E0
1.380374987E1,7.636123773E-2,-1.106638187E0,-2.421933680E0,2.663877224E0
1.381368287E1,1.263348683E-1,-1.019106538E0,-2.383820359E0,2.595599765E0
1.382361487E1,1.630459540E-1,-9.043637019E-1,-2.268486954E0,2.447547905E0
1.383354688E1,2.091409071E-1,-7.632277036E-1,-2.167235398E0,2.307198673E0
1.384347988E1,2.245752358E-1,-5.575290889E-1,-1.971966462E0,2.061534489E0
1.385341187E1,2.083159746E-1,-3.642599005E-1,-1.756545682E0,1.805971637E0
1.386334487E1,2.020672563E-1,-2.035310519E-1,-1.529765516E0,1.556418517E0
1.387327687E1,2.007519068E-1,-3.967452765E-2,-1.297174387E0,1.313216199E0
1.388320888E1,2.114455141E-1,9.573412299E-2,-9.520284498E-1,9.799144845E-1
1.389314188E1,2.197388393E-1,1.721975774E-1,-6.234073287E-1,6.830621206E-1
1.390307387E1,2.360514564E-1,2.724749869E-1,-3.482981712E-1,5.012729043E-1
1.391300587E1,2.196114248E-1,3.765671200E-1,-1.662749326E-1,4.665611717E-1
1.392293887E1,1.763357798E-1,4.614529037E-1,-4.116205931E-2,4.957089920E-1
1.393287088E1,1.630446383E-1,4.972682691E-1,9.552420795E-2,5.319625549E-1
1.394280287E1,1.489332330E-1,5.172411883E-1,2.579510880E-1,5.968737878E-1
1.395273587E1,1.118994542E-1,5.897367221E-1,4.219625634E-1,7.337324404E-1
1.396266787E1,8.418573503E-2,6.833436280E-1,5.689153719E-1,8.931463779E-1
1.397259987E1,1.337135611E-1,7.808477032E-1,7.858856642E-1,1.115893691E0
1.398253287E1,2.097148479E-1,8.249070579E-1,1.056334006E0,1.356574179E0
1.399246487E1,2.700306498E-1,8.323821384E-1,1.312282423E0,1.577295703E0
1.400239787E1,3.097635582E-1,8.676005030E-1,1.508445983E0,1.767510503E0
1.401232988E1,3.245140733E-1,8.148124248E-1,1.681960938E0,1.896897801E0
1.402226187E1,3.477824833E-1,7.341875070E-1,1.771723300E0,1.949099126E0
1.403219487E1,3.905304171E-1,6.850603706E-1,1.705005984E0,1.878527914E0
1.404212687E1,5.274850350E-1,6.684308892E-1,1.688251373E0,1.890828658E0
1.405205888E1,7.097271422E-1,6.800802970E-1,1.599797033E0,1.877650759E0
1.406199188E1,9.571725377E-1,6.811678791E-1,1.504694994E0,1.908998683E0
1.407192387E1,1.096324941E0,6.095821720E-1,1.270215214E0,1.785207409E0
1.408185587E1,1.205106907E0,5.169038039E-1,1.111358644E0,1.718892154E0
1.409178887E1,1.306803289E0,3.072378534E-1,1.154366670E0,1.770506239E0
1.410172087E1,1.352326056E0,9.930501759E-2,1.325432811E0,1.896159114E0
1.411165388E1,1.338397696E0,4.742910504E-2,1.410729654E0,1.945177644E0
1.412158587E1,1.333675485E0,1.385790110E-3,1.366482019E0,1.909441103E0
1.413151788E1,1.373411846E0,-1.802070934E-1,1.373620884E0,1.950786772E0
1.414145087E1,1.379811916E0,-4.664154357E-1,1.314445893E0,1.961935852E0
1.415138100E1,1.388246379E0,-6.541917497E-1,1.172113554E0,1.931073545E0
1.416131300E1,1.387049015E0,-7.364164656E-1,8.723537046E-1,1.796445147E0
1.417124600E1,1.356959097E0,-7.984507459E-1,6.157644331E-1,1.690570147E0
1.418117800E1,1.283366187E0,-8.698206908E-1,4.264333445E-1,1.607937251E0
1.419111000E1,1.181840689E0,-8.703562957E-1,3.993279916E-1,1.521095113E0
1.420104300E1,1.023135416E0,-8.149375552E-1,3.956717277E-1,1.366559700E0
1.421097500E1,8.662049188E-1,-7.626698792E-1,4.063610226E-1,1.223562662E0
1.422090700E1,6.887982763E-1,-7.625242835E-1,3.706362891E-1,1.092363313E0
1.423084000E1,5.043617456E-1,-7.895278949E-1,1.951771349E-1,9.569896453E-1
1.424077200E1,3.285746357E-1,-8.553178418E-1,-6.139810324E-2,9.183134698E-1
1.425070500E1,1.605351230E-1,-9.638421643E-1,-3.750462592E-1,1.046624546E0
1.426063700E1,-5.090330131E-3,-1.034914486E0,-7.578704846E-1,1.282747666E0
1.427056900E1,-1.397872559E-1,-1.092921789E0,-1.151928381E0,1.594038114E0
1.428050200E1,-2.755816491E-1,-1.140673660E0,-1.503777566E0,1.907466543E0
1.429043400E1,-3.715682622E-1,-1.112509961E0,-1.792710711E0,2.142324224E0
1.430036600E1,-4.180570253E-1,-1.093945051E0,-2.133350199E0,2.433653739E0
1.431029900E1,-4.416575937E-1,-1.057288272E0,-2.461915187E0,2.715501115E0
1.432023100E1,-4.312567492E-1,-9.935050893E-1,-2.687798975E0,2.897809185E0
1.433016300E1,-3.918003593E-1,-9.188390690E-1,-2.810902745E0,2.983110289E0
1.434009600E1,-3.631969497E-1,-8.464493698E-1,-2.926379406E0,3.067912155E0
1.435002800E1,-3.201548279E-1,-7.814809567E-1,-2.901804729E0,3.022198253E0
1.435996100E1,-2.815080946E-1,-6.449747837E-1,-2.790557942E0,2.877925105E0
1.436989300E1,-2.522084644E-1,-4.777578646E-1,-2.546712677E0,2.603383788E0
1.437982500E1,-1.857832906E-1,-3.316207427E-1,-2.333548923E0,2.364305040E0
1.438975800E1,-1.804110881E-1,-2.065680957E-1,-2.205714755E0,2.222700187E0
1.439969000E1,-1.448121794E-1,1.281885087E-2,-1.970131021E0,1.975487568E0
1.440962200E1,-9.224698976E-2,2.552876812E-1,-1.641871258E0,1.664158206E0
1.441955500E1,-4.269697626E-2,4.985423774E-1,-1.259653974E0,1.355395022E0
1.442948700E1,-3.161269734E-3,6.224507242E-1,-9.616219765E-1,1.145500643E0
1.443941900E1,1.714576305E-2,7.625722307E-1,-6.808977377E-1,1.022463747E0
1.444935200E1,7.167394521E-2,9.434084845E-1,-4.018066263E-1,1.027913074E0
1.445928400E1,1.210609447E-1,1.134563904E0,-1.576432729E-1,1.151843048E0
1.446921700E1,1.516300328E-1,1.293022279E0,6.687928319E-2,1.303599294E0
1.447914900E1,1.201128004E-1,1.379359342E0,3.209723783E-1,1.421296080E0
1.448908100E1,4.403367260E-2,1.415494550E0,5.888859522E-1,1.533737412E0
1.449901400E1,-2.850707665E-2,1.474291812E0,8.946123004E-1,1.724726114E0
1.450894600E1,-6.937611736E-2,1.527961065E0,1.159631503E0,1.919433063E0
1.451887800E1,-9.360491423E-2,1.533051651E0,1.296287949E0,2.009818821E0
1.452881100E1,-8.368706804E-2,1.533886049E0,1.393525976E0,2.074059927E0
1.453874300E1,-3.697079340E-2,1.601925420E0,1.424962361E0,2.144306326E0
1.454867500E1,-5.929968372E-2,1.645937412E0,1.374466392E0,2.145176981E0
1.455860800E1,-1.646306590E-1,1.781231457E0,1.276231415E0,2.197420165E0
1.456854000E1,-3.788470224E-1,1.941842777E0,1.201652518E0,2.314788804E0
1.457847300E1,-6.916175844E-1,2.016641529E0,1.220913246E0,2.456787963E0
1.458840500E1,-9.609950088E-1,2.084188564E0,1.359356017E0,2.667433628E0
1.459833700E1,-1.183194247E0,2.214451665E0,1.423178961E0,2.886032424E0
1.460827000E1,-1.341553438E0,2.160539752E0,1.489692208E0,2.947351442E0
1.461820200E1,-1.382042629E0,1.852385640E0,1.695960342E0,2.866645403E0
1.462813400E1,-1.257548976E0,1.361762146E0,2.134207985E0,2.826777192E0
1.463806700E1,-9.232562750E-1,7.452440071E-1,2.730891784E0,2.977509147E0
1.464799900E1,-6.746420941E-1,3.719712085E-1,3.084934260E0,3.179673556E0
1.465793200E1,-6.109609455E-1,1.533976096E-1,3.052962270E0,3.117271680E0
1.466786400E1,-6.582273518E-1,-1.433690500E-1,2.901474361E0,2.978652614E0
1.467779600E1,-7.457313725E-1,-3.835036719E-1,2.660631641E0,2.789650709E0
1.468772900E1,-8.220962282E-1,-4.474704570E-1,2.199332519E0,2.390216632E0
1.469766100E1,-8.516405278E-1,-3.922815120E-1,1.735286375E0,1.972408471E0
1.470759300E1,-8.431239852E-1,-3.701872230E-1,1.325038708E0,1.613574979E0
1.471752600E1,-7.242196854E-1,-3.807268292E-1,1.059186278E0,1.338403020E0
1.472745800E1,-5.652108684E-1,-3.276814735E-1,8.886095488E-1,1.102934905E0
1.473739000E1,-4.234834242E-1,-4.447164184E-1,7.537113601E-1,9.722097087E-1
1.474732300E1,-2.817336144E-1,-5.778335452E-1,6.254100001E-1,8.968852232E-1
1.475725500E1,-8.669098372E-2,-6.275459880E-1,5.072295856E-1,8.115486099E-1
1.476718800E1,9.537678503E-2,-6.792757201E-1,4.083940995E-1,7.983094485E-1
1.477712000E1,2.481818707E-1,-8.433708107E-1,2.541077131E-1,9.151170937E-1
1.478705200E1,2.998455110E-1,-1.017010896E0,4.508904934E-2,1.061249978E0
1.479698500E1,2.305409307E-1,-1.105457050E0,-2.600379592E-1,1.158794265E0
1.480691700E1,1.151116678E-1,-1.131903421E0,-6.588262528E-1,1.314727380E0
1.481684900E1,4.419625260E-2,-1.170520772E0,-9.535557425E-1,1.510410786E0
1.482678200E1,-1.595880568E-2,-1.262386377E0,-1.150160767E0,1.707847722E0
1.483671400E1,-9.728226470E-2,-1.330352658E0,-1.203251147E0,1.796417367E0
1.484664600E1,-1.595449336E-1,-1.360600305E0,-1.296543472E0,1.886190009E0
1.485657900E1,-2.131670440E-1,-1.399762031E0,-1.413678989E0,2.000815388E0
1.486651100E1,-2.528174702E-1,-1.339903500E0,-1.616546967E0,2.114824380E0
1.487644400E1,-2.379520024E-1,-1.266457794E0,-1.866904276E0,2.268450589E0
1.488637600E1,-1.746162050E-1,-1.229148465E0,-2.069426098E0,2.413259444E0
1.489630800E1,-1.214836527E-1,-1.249979171E0,-2.179166642E0,2.515148794E0
1.490624100E1,-7.727191416E-2,-1.199982553E0,-2.226002254E0,2.530022750E0
1.491617300E1,-2.339697105E-2,-1.074418859E0,-2.147391118E0,2.401293801E0
1.492610500E1,5.207669588E-2,-9.453912753E-1,-2.038843406E0,2.247967767E0
1.493603800E1,8.823177986E-2,-7.910832542E-1,-1.957139093E0,2.112815891E0
1.494597000E1,8.060485449E-2,-6.051435506E-1,-1.813430319E0,1.913432879E0
1.495590300E1,9.024722373E-2,-4.104868180E-1,-1.655561929E0,1.708077659E0
1.496583500E1,9.244278012E-2,-2.557379168E-1,-1.545659418E0,1.569398160E0
1.497576700E1,1.111129306E-1,-1.522837150E-1,-1.428114595E0,1.440502590E0
1.498570000E1,1.569459376E-1,-2.775205493E-2,-1.304113278E0,1.313816443E0
1.499563200E1,2.199167774E-1,8.609908104E-2,-1.074282619E0,1.099936174E0
1.500556400E1,2.626560866E-1,1.496705943E-1,-7.165482116E-1,7.777087155E-1
1.501549700E1,2.559313500E-1,2.117516524E-1,-4.236395448E-1,5.383401175E-1
1.502542900E1,2.318423930E-1,3.090136528E-1,-1.813285893E-1,4.267556562E-1
1.503536100E1,1.901021354E-1,3.875522840E-1,6.777916968E-2,4.369549297E-1
1.504529400E1,1.507579846E-1,4.745980293E-1,3.103491569E-1,5.867604779E-1
1.505522600E1,1.051113941E-1,5.646773100E-1,4.683760071E-1,7.411376077E-1
1.506515900E1,6.169031327E-2,6.486351407E-1,5.285859561E-1,8.390091498E-1
1.507509100E1,7.327271101E-2,6.649769390E-1,6.082057375E-1,9.041445894E-1
1.508502300E1,8.841160001E-2,6.565125096E-1,7.243407959E-1,9.815777477E-1
1.509495600E1,7.555570154E-2,6.184728634E-1,9.966152233E-1,1.175354946E0
1.510488800E1,3.415098279E-2,5.940607381E-1,1.352852159E0,1.477932141E0
1.511482000E1,3.980621791E-2,6.139979893E-1,1.539675377E0,1.658064635E0
1.512475300E1,3.469936025E-2,5.785515833E-1,1.586247865E0,1.688818602E0
1.513468500E1,1.725273969E-1,5.529934037E-1,1.646720939E0,1.745639498E0
1.514461800E1,3.067658369E-1,5.295156634E-1,1.697234450E0,1.804188708E0
1.515454583E1,3.958594598E-1,6.369828093E-1,1.603422307E0,1.770145447E0
1.516447783E1,5.631348876E-1,7.877895176E-1,1.534832128E0,1.814784529E0
1.517441083E1,7.092269129E-1,8.856017411E-1,1.403373857E0,1.804647179E0
1.518434283E1,7.756207310E-1,8.066228145E-1,1.329993639E0,1.738134334E0
1.519427483E1,7.787143466E-1,5.015817600E-1,1.368969424E0,1.652893699E0
1.520420783E1,6.850680450E-1,2.622920609E-1,1.496372652E0,1.666507265E0
1.521413983E1,6.169408929E-1,2.493901795E-1,1.610216771E0,1.742300083E0
1.522407283E1,6.393724933E-1,1.057159048E-1,1.737243438E0,1.854181167E0
1.523400483E1,7.114263430E-1,-2.166796857E-1,1.756131114E0,1.907111433E0
1.524393683E1,8.061136682E-1,-4.133642328E-1,1.572794591E0,1.815040512E0
1.525386983E1,8.812441036E-1,-4.598367333E-1,1.197067716E0,1.555960189E0
1.526380183E1,8.957337233E-1,-5.290665972E-1,7.460895145E-1,1.280195271E0
1.527373383E1,8.727373550E-1,-6.220115983E-1,2.208972824E-1,1.094241531E0
1.528366683E1,8.205618457E-1,-7.370918190E-1,-8.495945871E-2,1.106274922E0
1.529359883E1,7.271326952E-1,-8.533724731E-1,-3.464007497E-2,1.121680199E0
1.530353183E1,5.313754434E-1,-8.925371236E-1,1.436035234E-1,1.048620213E0
1.531346383E1,3.438697093E-1,-8.381778985E-1,2.848319077E-1,9.496935202E-1
1.532339583E1,2.706014842E-1,-8.241170990E-1,4.221362257E-1,9.646725606E-1
1.533332883E1,2.581891793E-1,-8.121092570E-1,3.939333504E-1,9.388112601E-1
1.534326083E1,2.397959950E-1,-8.789633971E-1,2.383161378E-1,9.417395363E-1
1.535319283E1,1.879958039E-1,-9.956124258E-1,-5.754361868E-2,1.014838801E0
1.536312583E1,1.210775727E-1,-1.055882601E0,-4.508899087E-1,1.154491038E0
1.537305783E1,-2.850481999E-2,-1.103128688E0,-7.648339337E-1,1.342637842E0
1.538299083E1,-2.154676675E-1,-1.102356271E0,-1.129149967E0,1.592669242E0
1.539292283E1,-4.096838856E-1,-1.015450274E0,-1.549930224E0,1.897699619E0
1.540285483E1,-5.344033144E-1,-9.188390690E-1,-1.964513016E0,2.233643555E0
1.541278783E1,-5.470434232E-1,-8.466388196E-1,-2.320288607E0,2.529781219E0
1.542271983E1,-4.755392483E-1,-8.467119098E-1,-2.552362842E0,2.730863364E0
1.543265183E1,-4.285526313E-1,-8.118584114E-1,-2.589228952E0,2.747158169E0
1.544258483E1,-4.386585202E-1,-7.088176078E-1,-2.604598358E0,2.734735144E0
1.545251683E1,-4.678261130E-1,-5.943647933E-1,-2.596773030E0,2.704692394E0
1.546244983E1,-4.861513965E-1,-5.355476511E-1,-2.515089181E0,2.617026568E0
1.547238183E1,-4.858876140E-1,-4.532627088E-1,-2.479994777E0,2.567471120E0
1.548231383E1,-3.932480202E-1,-3.556498754E-1,-2.387546205E0,2.445712109E0
1.549224683E1,-3.025342435E-1,-2.650174481E-1,-2.344238802E0,2.378490441E0
1.550217883E1,-2.230745297E-1,-1.290153050E-1,-2.239782972E0,2.254558706E0
1.551211083E1,-1.422068794E-1,1.689436018E-2,-2.033220724E0,2.038257768E0
1.552204383E1,-1.109551106E-1,1.208455753E-1,-1.726198633E0,1.733977050E0
1.553197583E1,-9.556702967E-2,2.779573363E-1,-1.403787839E0,1.434229283E0
1.554190883E1,-6.974239974E-2,4.547572571E-1,-1.084056240E0,1.177644300E0
1.555184083E1,-3.902722260E-2,5.769032532E-1,-7.939092135E-1,9.821569768E-1
1.556177283E1,-3.485794771E-2,7.320035720E-1,-5.086574757E-1,8.920631892E-1
1.557170583E1,-7.153982470E-2,8.552669710E-1,-2.107786757E-1,8.837574262E-1
1.558163783E1,-1.211033096E-1,1.009866183E0,4.519196033E-2,1.018105119E0
1.559156983E1,-1.601622899E-1,1.176989547E0,2.570319057E-1,1.215327838E0
1.560150283E1,-1.976173424E-1,1.276693929E0,4.351030111E-1,1.363200144E0
1.561143483E1,-1.812187165E-1,1.301679667E0,6.053622365E-1,1.446953218E0
1.562136783E1,-1.487923425E-1,1.333955712E0,8.918331188E-1,1.611503433E0
1.563129983E1,-9.155661631E-2,1.350606244E0,1.139849203E0,1.769682470E0
1.564123183E1,-2.372860411E-2,1.332738907E0,1.313795682E0,1.871580919E0
1.565116483E1,2.740681339E-3,1.293937368E0,1.484835511E0,1.969522257E0
1.566109683E1,-1.489748122E-2,1.309397407E0,1.662394985E0,2.116199563E0
1.567102883E1,-7.651306434E-2,1.414710438E0,1.680683906E0,2.198171573E0
1.568096183E1,-1.781810880E-1,1.479513960E0,1.553936151E0,2.153004324E0
1.569089383E1,-3.084274694E-1,1.506229888E0,1.431008382E0,2.100390671E0
1.570082683E1,-4.690121841E-1,1.581519806E0,1.347606622E0,2.130075335E0
1.571075883E1,-6.311293079E-1,1.695338198E0,1.240497326E0,2.193474282E0
1.572069083E1,-8.406919089E-1,1.814150696E0,1.165615543E0,2.314425464E0
1.573062383E1,-9.619010349E-1,1.654460313E0,1.263454079E0,2.293209266E0
1.574055583E1,-9.017391061E-1,1.222116019E0,1.528225944E0,2.154570842E0
1.575048783E1,-7.176226375E-1,7.121475971E-1,1.844222342E0,2.103162499E0
1.576042083E1,-4.849971561E-1,3.845930082E-1,2.157490429E0,2.244526447E0
1.577035283E1,-3.405612816E-1,1.311822832E-1,2.425924405E0,2.453222370E0
1.578028583E1,-3.709025567E-1,-1.753059572E-1,2.506147619E0,2.539503253E0
1.579021783E1,-5.322490905E-1,-4.151423711E-1,2.442524650E0,2.534079507E0
1.580014983E1,-7.504220089E-1,-4.484603906E-1,2.302936410E0,2.463283585E0
1.581008283E1,-1.004772893E0,-3.037242615E-1,2.067273738E0,2.318499019E0
1.582001483E1,-1.189080420E0,-1.452805048E-1,1.844805894E0,2.199619843E0
1.582994683E1,-1.236652197E0,-9.044297755E-2,1.719056844E0,2.119586049E0
1.583987983E1,-1.173667232E0,-1.055995452E-1,1.694098588E0,2.063641457E0
1.584981183E1,-1.034366090E0,-1.809847730E-1,1.684673461E0,1.985143160E0
1.585974483E1,-8.514063469E-1,-3.465422523E-1,1.698161818E0,1.930994009E0
1.586967683E1,-6.275499348E-1,-4.714621675E-1,1.570224740E0,1.755477493E0
1.587960883E1,-4.151626170E-1,-5.468093884E-1,1.268368079E0,1.442261450E0
1.588954183E1,-2.425144569E-1,-7.112611592E-1,8.323306829E-1,1.121374186E0
1.589947383E1,-1.055652294E-1,-9.271701819E-1,3.921008331E-1,1.012191497E0
1.590940583E1,-1.139695421E-2,-1.084146872E0,-9.287892759E-2,1.088177755E0
1.591933883E1,7.372953387E-2,-1.114918429E0,-5.086720937E-1,1.227691511E0
1.592927083E1,1.546487676E-1,-1.111499562E0,-7.230696112E-1,1.334982090E0
1.593920383E1,2.292509984E-1,-1.226924769E0,-9.304510546E-1,1.556804282E0
1.594913583E1,2.420579173E-1,-1.254102042E0,-1.134094958E0,1.708079431E0
1.595906783E1,2.204145216E-1,-1.278118896E0,-1.427274351E0,1.928544152E0
1.596900083E1,1.890830754E-1,-1.271506864E0,-1.788793076E0,2.202785234E0
1.597893283E1,1.667334091E-1,-1.220869977E0,-2.071607110E0,2.410369173E0
1.598886583E1,2.244750657E-1,-1.226272804E0,-2.336173738E0,2.647988251E0
1.599879783E1,3.055132720E-1,-1.212304391E0,-2.544955004E0,2.835456977E0
1.600872983E1,3.791109877E-1,-1.186266155E0,-2.673234730E0,2.949090784E0
1.601866283E1,4.229727064E-1,-1.154212303E0,-2.682442340E0,2.950696335E0
1.602859483E1,4.718527250E-1,-1.100522000E0,-2.567466785E0,2.832962999E0
1.603852683E1,4.675342273E-1,-1.010032244E0,-2.493004832E0,2.730169680E0
1.604845983E1,4.165074766E-1,-8.732021356E-1,-2.419862596E0,2.606088148E0
1.605839183E1,3.427785092E-1,-7.647421324E-1,-2.300495197E0,2.448388406E0
1.606832483E1,2.565487612E-1,-6.573808211E-1,-2.129402744E0,2.243283944E0
1.607825683E1,1.580310712E-1,-5.181761581E-1,-1.985145501E0,2.057737353E0
1.608818883E1,1.273067578E-1,-3.602311689E-1,-1.760414785E0,1.801397713E0
1.609812183E1,9.915796925E-2,-1.934393424E-1,-1.417541660E0,1.434111376E0
1.610805383E1,4.486906612E-2,-4.892891586E-2,-9.453181851E-1,9.476464230E-1
1.611798583E1,2.932150243E-4,1.169910908E-1,-4.768603170E-1,4.910017955E-1
1.612791883E1,-4.231880302E-2,2.942652208E-1,-2.520489085E-1,3.897583270E-1
1.613785083E1,-5.286256623E-2,4.153680736E-1,-1.999186420E-1,4.639962833E-1
1.614778383E1,2.307730651E-2,3.832165736E-1,-4.761738539E-2,3.868525814E-1
